onset	duration	trial	trial_type	event_type	response_time	value_stimulus	value_reference	response_decision	response_estimation
0.0	1.5	1	late	stimulus	n/a	90.0	n/a	n/a	n/a
11.5	0.5	1	late	dm_task_pre	n/a	n/a	n/a	n/a	n/a
12.0	0.652655398997013	1	late	dm_task	0.652655398997013	n/a	-4.0	1.0	n/a
12.652655398997013	0.75	1	late	dm_task_post	n/a	n/a	n/a	n/a	n/a
17.5	0.5	1	late	em_task_pre	n/a	n/a	n/a	n/a	n/a
18.0	2.8406906489980983	1	late	em_task	n/a	n/a	n/a	n/a	86.3853693645007
20.8406906489981	0.75	1	late	em_task_post	n/a	n/a	n/a	n/a	n/a
28.0	1.5	2	early	stimulus	n/a	67.5	n/a	n/a	n/a
33.5	0.5	2	early	dm_task_pre	n/a	n/a	n/a	n/a	n/a
34.0	0.643402742018225	2	early	dm_task	0.643402742018225	n/a	21.0	-1.0	n/a
34.643402742018225	0.75	2	early	dm_task_post	n/a	n/a	n/a	n/a	n/a
45.5	0.5	2	early	em_task_pre	n/a	n/a	n/a	n/a	n/a
46.0	2.9644986830243987	2	early	em_task	n/a	n/a	n/a	n/a	63.3517901747033
48.9644986830244	0.75	2	early	em_task_post	n/a	n/a	n/a	n/a	n/a
56.0	1.5	3	late	stimulus	n/a	105.0	n/a	n/a	n/a
67.5	0.5	3	late	dm_task_pre	n/a	n/a	n/a	n/a	n/a
68.0	0.621279127022717	3	late	dm_task	0.621279127022717	n/a	-21.0	1.0	n/a
68.62127912702272	0.75	3	late	dm_task_post	n/a	n/a	n/a	n/a	n/a
73.5	0.5	3	late	em_task_pre	n/a	n/a	n/a	n/a	n/a
74.0	1.9072789640048988	3	late	em_task	n/a	n/a	n/a	n/a	101.74930713095
75.9072789640049	0.75	3	late	em_task_post	n/a	n/a	n/a	n/a	n/a
84.0	1.5	4	early	stimulus	n/a	142.5	n/a	n/a	n/a
89.5	0.5	4	early	dm_task_pre	n/a	n/a	n/a	n/a	n/a
90.0	0.710699498013128	4	early	dm_task	0.710699498013128	n/a	21.0	-1.0	n/a
90.71069949801313	0.75	4	early	dm_task_post	n/a	n/a	n/a	n/a	n/a
101.5	0.5	4	early	em_task_pre	n/a	n/a	n/a	n/a	n/a
102.0	2.949768847000101	4	early	em_task	n/a	n/a	n/a	n/a	142.547824616388
104.9497688470001	0.75	4	early	em_task_post	n/a	n/a	n/a	n/a	n/a
112.0	1.5	5	early	stimulus	n/a	112.5	n/a	n/a	n/a
117.5	0.5	5	early	dm_task_pre	n/a	n/a	n/a	n/a	n/a
118.0	0.82042953101336	5	early	dm_task	0.82042953101336	n/a	4.0	-1.0	n/a
118.82042953101336	0.75	5	early	dm_task_post	n/a	n/a	n/a	n/a	n/a
129.5	0.5	5	early	em_task_pre	n/a	n/a	n/a	n/a	n/a
130.0	1.5414823470054984	5	early	em_task	n/a	n/a	n/a	n/a	123.248537400674
131.5414823470055	0.75	5	early	em_task_post	n/a	n/a	n/a	n/a	n/a
140.0	1.5	6	late	stimulus	n/a	7.5	n/a	n/a	n/a
151.5	0.5	6	late	dm_task_pre	n/a	n/a	n/a	n/a	n/a
152.0	0.781460256024729	6	late	dm_task	0.781460256024729	n/a	-21.0	1.0	n/a
152.78146025602473	0.75	6	late	dm_task_post	n/a	n/a	n/a	n/a	n/a
157.5	0.5	6	late	em_task_pre	n/a	n/a	n/a	n/a	n/a
158.0	2.9677694910206007	6	late	em_task	n/a	n/a	n/a	n/a	176.292000788931
160.9677694910206	0.75	6	late	em_task_post	n/a	n/a	n/a	n/a	n/a
168.0	1.5	7	late	stimulus	n/a	127.5	n/a	n/a	n/a
179.5	0.5	7	late	dm_task_pre	n/a	n/a	n/a	n/a	n/a
180.0	0.591611558018485	7	late	dm_task	0.591611558018485	n/a	0.0	1.0	n/a
180.59161155801849	0.75	7	late	dm_task_post	n/a	n/a	n/a	n/a	n/a
185.5	0.5	7	late	em_task_pre	n/a	n/a	n/a	n/a	n/a
186.0	2.8604504899995007	7	late	em_task	n/a	n/a	n/a	n/a	177.752299302929
188.8604504899995	0.75	7	late	em_task_post	n/a	n/a	n/a	n/a	n/a
196.0	1.5	8	late	stimulus	n/a	30.0	n/a	n/a	n/a
207.5	0.5	8	late	dm_task_pre	n/a	n/a	n/a	n/a	n/a
208.0	0.583330111025134	8	late	dm_task	0.583330111025134	n/a	-4.0	-1.0	n/a
208.58333011102513	0.75	8	late	dm_task_post	n/a	n/a	n/a	n/a	n/a
213.5	0.5	8	late	em_task_pre	n/a	n/a	n/a	n/a	n/a
214.0	2.7028756700164998	8	late	em_task	n/a	n/a	n/a	n/a	32.7757036480979
216.7028756700165	0.75	8	late	em_task_post	n/a	n/a	n/a	n/a	n/a
224.0	1.5	9	late	stimulus	n/a	97.5	n/a	n/a	n/a
235.5	0.5	9	late	dm_task_pre	n/a	n/a	n/a	n/a	n/a
236.0	0.592276833020151	9	late	dm_task	0.592276833020151	n/a	21.0	-1.0	n/a
236.59227683302015	0.75	9	late	dm_task_post	n/a	n/a	n/a	n/a	n/a
241.5	0.5	9	late	em_task_pre	n/a	n/a	n/a	n/a	n/a
242.0	1.8621416900131997	9	late	em_task	n/a	n/a	n/a	n/a	92.0878265230392
243.8621416900132	0.75	9	late	em_task_post	n/a	n/a	n/a	n/a	n/a
252.0	1.5	10	late	stimulus	n/a	135.0	n/a	n/a	n/a
263.5	0.5	10	late	dm_task_pre	n/a	n/a	n/a	n/a	n/a
264.0	0.601425316999666	10	late	dm_task	0.601425316999666	n/a	4.0	1.0	n/a
264.60142531699967	0.75	10	late	dm_task_post	n/a	n/a	n/a	n/a	n/a
269.5	0.5	10	late	em_task_pre	n/a	n/a	n/a	n/a	n/a
270.0	2.8205901660257986	10	late	em_task	n/a	n/a	n/a	n/a	141.278809513414
272.8205901660258	0.75	10	late	em_task_post	n/a	n/a	n/a	n/a	n/a
280.0	1.5	11	early	stimulus	n/a	165.0	n/a	n/a	n/a
285.5	0.5	11	early	dm_task_pre	n/a	n/a	n/a	n/a	n/a
286.0	1.00884853099706	11	early	dm_task	1.00884853099706	n/a	0.0	-1.0	n/a
287.00884853099706	0.75	11	early	dm_task_post	n/a	n/a	n/a	n/a	n/a
297.5	0.5	11	early	em_task_pre	n/a	n/a	n/a	n/a	n/a
298.0	1.6627277189982017	11	early	em_task	n/a	n/a	n/a	n/a	145.253432445823
299.6627277189982	0.75	11	early	em_task_post	n/a	n/a	n/a	n/a	n/a
308.0	1.5	12	late	stimulus	n/a	52.5	n/a	n/a	n/a
319.5	0.5	12	late	dm_task_pre	n/a	n/a	n/a	n/a	n/a
320.0	0.669135440024547	12	late	dm_task	0.669135440024547	n/a	21.0	-1.0	n/a
320.66913544002455	0.75	12	late	dm_task_post	n/a	n/a	n/a	n/a	n/a
325.5	0.5	12	late	em_task_pre	n/a	n/a	n/a	n/a	n/a
326.0	2.6561734820134006	12	late	em_task	n/a	n/a	n/a	n/a	43.161669331044
328.6561734820134	0.75	12	late	em_task_post	n/a	n/a	n/a	n/a	n/a
