onset	duration	trial	trial_type	event_type	response_time	value_stimulus	value_reference	response_decision	response_estimation
0.0	1.5	1	early	stimulus	n/a	52.5	n/a	n/a	n/a
5.5	0.5	1	early	dm_task_pre	n/a	n/a	n/a	n/a	n/a
6.0	0.548411476003821	1	early	dm_task	0.548411476003821	n/a	21.0	-1.0	n/a
6.548411476003821	0.75	1	early	dm_task_post	n/a	n/a	n/a	n/a	n/a
17.5	0.5	1	early	em_task_pre	n/a	n/a	n/a	n/a	n/a
18.0	2.644880241001399	1	early	em_task	n/a	n/a	n/a	n/a	60.9327331528127
20.6448802410014	0.75	1	early	em_task_post	n/a	n/a	n/a	n/a	n/a
28.0	1.5	2	early	stimulus	n/a	150.0	n/a	n/a	n/a
33.5	0.5	2	early	dm_task_pre	n/a	n/a	n/a	n/a	n/a
34.0	1.30514067800686	2	early	dm_task	1.30514067800686	n/a	4.0	1.0	n/a
35.30514067800686	0.75	2	early	dm_task_post	n/a	n/a	n/a	n/a	n/a
45.5	0.5	2	early	em_task_pre	n/a	n/a	n/a	n/a	n/a
46.0	3.5672895509997	2	early	em_task	n/a	n/a	n/a	n/a	151.444001953217
49.5672895509997	0.75	2	early	em_task_post	n/a	n/a	n/a	n/a	n/a
56.0	1.5	3	early	stimulus	n/a	7.5	n/a	n/a	n/a
61.5	0.5	3	early	dm_task_pre	n/a	n/a	n/a	n/a	n/a
62.0	0.645064422002179	3	early	dm_task	0.645064422002179	n/a	0.0	1.0	n/a
62.64506442200218	0.75	3	early	dm_task_post	n/a	n/a	n/a	n/a	n/a
73.5	0.5	3	early	em_task_pre	n/a	n/a	n/a	n/a	n/a
74.0	3.4581924380036	3	early	em_task	n/a	n/a	n/a	n/a	12.6814936145072
77.4581924380036	0.75	3	early	em_task_post	n/a	n/a	n/a	n/a	n/a
84.0	1.5	4	early	stimulus	n/a	67.5	n/a	n/a	n/a
89.5	0.5	4	early	dm_task_pre	n/a	n/a	n/a	n/a	n/a
90.0	1.15215287200408	4	early	dm_task	1.15215287200408	n/a	4.0	-1.0	n/a
91.15215287200408	0.75	4	early	dm_task_post	n/a	n/a	n/a	n/a	n/a
101.5	0.5	4	early	em_task_pre	n/a	n/a	n/a	n/a	n/a
102.0	2.7804496140016006	4	early	em_task	n/a	n/a	n/a	n/a	71.0904041581423
104.7804496140016	0.75	4	early	em_task_post	n/a	n/a	n/a	n/a	n/a
112.0	1.5	5	early	stimulus	n/a	0.0	n/a	n/a	n/a
117.5	0.5	5	early	dm_task_pre	n/a	n/a	n/a	n/a	n/a
118.0	0.524949190999905	5	early	dm_task	0.524949190999905	n/a	21.0	-1.0	n/a
118.5249491909999	0.75	5	early	dm_task_post	n/a	n/a	n/a	n/a	n/a
129.5	0.5	5	early	em_task_pre	n/a	n/a	n/a	n/a	n/a
130.0	3.0547224050024013	5	early	em_task	n/a	n/a	n/a	n/a	170.492403340743
133.0547224050024	0.75	5	early	em_task_post	n/a	n/a	n/a	n/a	n/a
140.0	1.5	6	early	stimulus	n/a	127.5	n/a	n/a	n/a
145.5	0.5	6	early	dm_task_pre	n/a	n/a	n/a	n/a	n/a
146.0	0.781592630002706	6	early	dm_task	0.781592630002706	n/a	-21.0	1.0	n/a
146.7815926300027	0.75	6	early	dm_task_post	n/a	n/a	n/a	n/a	n/a
157.5	0.5	6	early	em_task_pre	n/a	n/a	n/a	n/a	n/a
158.0	2.826464083002101	6	early	em_task	n/a	n/a	n/a	n/a	112.085499659958
160.8264640830021	0.75	6	early	em_task_post	n/a	n/a	n/a	n/a	n/a
168.0	1.5	7	late	stimulus	n/a	97.5	n/a	n/a	n/a
179.5	0.5	7	late	dm_task_pre	n/a	n/a	n/a	n/a	n/a
180.0	0.619397754002421	7	late	dm_task	0.619397754002421	n/a	21.0	-1.0	n/a
180.61939775400242	0.75	7	late	dm_task_post	n/a	n/a	n/a	n/a	n/a
185.5	0.5	7	late	em_task_pre	n/a	n/a	n/a	n/a	n/a
186.0	3.1323133040059012	7	late	em_task	n/a	n/a	n/a	n/a	111.592218200791
189.1323133040059	0.75	7	late	em_task_post	n/a	n/a	n/a	n/a	n/a
196.0	1.5	8	late	stimulus	n/a	142.5	n/a	n/a	n/a
207.5	0.5	8	late	dm_task_pre	n/a	n/a	n/a	n/a	n/a
208.0	0.542663848005759	8	late	dm_task	0.542663848005759	n/a	4.0	-1.0	n/a
208.54266384800576	0.75	8	late	dm_task_post	n/a	n/a	n/a	n/a	n/a
213.5	0.5	8	late	em_task_pre	n/a	n/a	n/a	n/a	n/a
214.0	2.3729107400068017	8	late	em_task	n/a	n/a	n/a	n/a	137.453150323313
216.3729107400068	0.75	8	late	em_task_post	n/a	n/a	n/a	n/a	n/a
224.0	1.5	9	late	stimulus	n/a	172.5	n/a	n/a	n/a
235.5	0.5	9	late	dm_task_pre	n/a	n/a	n/a	n/a	n/a
236.0	1.16585581400432	9	late	dm_task	1.16585581400432	n/a	-4.0	-1.0	n/a
237.16585581400432	0.75	9	late	dm_task_post	n/a	n/a	n/a	n/a	n/a
241.5	0.5	9	late	em_task_pre	n/a	n/a	n/a	n/a	n/a
242.0	3.3291363790049004	9	late	em_task	n/a	n/a	n/a	n/a	149.298384774676
245.3291363790049	0.75	9	late	em_task_post	n/a	n/a	n/a	n/a	n/a
252.0	1.5	10	early	stimulus	n/a	75.0	n/a	n/a	n/a
257.5	0.5	10	early	dm_task_pre	n/a	n/a	n/a	n/a	n/a
258.0	0.623920084006386	10	early	dm_task	0.623920084006386	n/a	-21.0	1.0	n/a
258.6239200840064	0.75	10	early	dm_task_post	n/a	n/a	n/a	n/a	n/a
269.5	0.5	10	early	em_task_pre	n/a	n/a	n/a	n/a	n/a
270.0	2.6191239350009994	10	early	em_task	n/a	n/a	n/a	n/a	71.1702420052863
272.61912393500097	0.75	10	early	em_task_post	n/a	n/a	n/a	n/a	n/a
280.0	1.5	11	late	stimulus	n/a	60.0	n/a	n/a	n/a
291.5	0.5	11	late	dm_task_pre	n/a	n/a	n/a	n/a	n/a
292.0	1.16130373700435	11	late	dm_task	1.16130373700435	n/a	-4.0	1.0	n/a
293.16130373700435	0.75	11	late	dm_task_post	n/a	n/a	n/a	n/a	n/a
297.5	0.5	11	late	em_task_pre	n/a	n/a	n/a	n/a	n/a
298.0	2.6417761890043003	11	late	em_task	n/a	n/a	n/a	n/a	60.3071713665014
300.6417761890043	0.75	11	late	em_task_post	n/a	n/a	n/a	n/a	n/a
308.0	1.5	12	late	stimulus	n/a	157.5	n/a	n/a	n/a
319.5	0.5	12	late	dm_task_pre	n/a	n/a	n/a	n/a	n/a
320.0	0.650481589000265	12	late	dm_task	0.650481589000265	n/a	-4.0	-1.0	n/a
320.65048158900026	0.75	12	late	dm_task_post	n/a	n/a	n/a	n/a	n/a
325.5	0.5	12	late	em_task_pre	n/a	n/a	n/a	n/a	n/a
326.0	2.1823401820001997	12	late	em_task	n/a	n/a	n/a	n/a	149.788764978249
328.1823401820002	0.75	12	late	em_task_post	n/a	n/a	n/a	n/a	n/a
