onset	duration	trial	trial_type	event_type	response_time	value_stimulus	value_reference	response_decision	response_estimation
0.0	1.5	1	early	stimulus	n/a	127.5	n/a	n/a	n/a
5.5	0.5	1	early	dm_task_pre	n/a	n/a	n/a	n/a	n/a
6.0	1.08295306900027	1	early	dm_task	1.08295306900027	n/a	0.0	-1.0	n/a
7.08295306900027	0.75	1	early	dm_task_post	n/a	n/a	n/a	n/a	n/a
17.5	0.5	1	early	em_task_pre	n/a	n/a	n/a	n/a	n/a
18.0	3.2108547230000006	1	early	em_task	n/a	n/a	n/a	n/a	119.440319843155
21.210854723	0.75	1	early	em_task_post	n/a	n/a	n/a	n/a	n/a
28.0	1.5	2	early	stimulus	n/a	15.0	n/a	n/a	n/a
33.5	0.5	2	early	dm_task_pre	n/a	n/a	n/a	n/a	n/a
34.0	0.724182920000203	2	early	dm_task	0.724182920000203	n/a	-21.0	1.0	n/a
34.7241829200002	0.75	2	early	dm_task_post	n/a	n/a	n/a	n/a	n/a
45.5	0.5	2	early	em_task_pre	n/a	n/a	n/a	n/a	n/a
46.0	2.2519545980002995	2	early	em_task	n/a	n/a	n/a	n/a	22.713309741612
48.251954598000296	0.75	2	early	em_task_post	n/a	n/a	n/a	n/a	n/a
56.0	1.5	3	late	stimulus	n/a	30.0	n/a	n/a	n/a
67.5	0.5	3	late	dm_task_pre	n/a	n/a	n/a	n/a	n/a
68.0	0.876732087000164	3	late	dm_task	0.876732087000164	n/a	-4.0	1.0	n/a
68.87673208700016	0.75	3	late	dm_task_post	n/a	n/a	n/a	n/a	n/a
73.5	0.5	3	late	em_task_pre	n/a	n/a	n/a	n/a	n/a
74.0	2.1583617220003006	3	late	em_task	n/a	n/a	n/a	n/a	39.1057442755464
76.15836172200031	0.75	3	late	em_task_post	n/a	n/a	n/a	n/a	n/a
84.0	1.5	4	early	stimulus	n/a	97.5	n/a	n/a	n/a
89.5	0.5	4	early	dm_task_pre	n/a	n/a	n/a	n/a	n/a
90.0	0.701458930000172	4	early	dm_task	0.701458930000172	n/a	0.0	1.0	n/a
90.70145893000017	0.75	4	early	dm_task_post	n/a	n/a	n/a	n/a	n/a
101.5	0.5	4	early	em_task_pre	n/a	n/a	n/a	n/a	n/a
102.0	3.298139891000101	4	early	em_task	n/a	n/a	n/a	n/a	123.886812959819
105.2981398910001	0.75	4	early	em_task_post	n/a	n/a	n/a	n/a	n/a
112.0	1.5	5	early	stimulus	n/a	7.5	n/a	n/a	n/a
117.5	0.5	5	early	dm_task_pre	n/a	n/a	n/a	n/a	n/a
118.0	0.742775070000334	5	early	dm_task	0.742775070000334	n/a	-4.0	1.0	n/a
118.74277507000033	0.75	5	early	dm_task_post	n/a	n/a	n/a	n/a	n/a
129.5	0.5	5	early	em_task_pre	n/a	n/a	n/a	n/a	n/a
130.0	2.5373924150003013	5	early	em_task	n/a	n/a	n/a	n/a	12.5384293986245
132.5373924150003	0.75	5	early	em_task_post	n/a	n/a	n/a	n/a	n/a
140.0	1.5	6	late	stimulus	n/a	60.0	n/a	n/a	n/a
151.5	0.5	6	late	dm_task_pre	n/a	n/a	n/a	n/a	n/a
152.0	1.5	6	late	dm_task	n/a	n/a	0.0	n/a	n/a
153.5	0.75	6	late	dm_task_post	n/a	n/a	n/a	n/a	n/a
157.5	0.5	6	late	em_task_pre	n/a	n/a	n/a	n/a	n/a
158.0	2.144810861000199	6	late	em_task	n/a	n/a	n/a	n/a	41.1179147517275
160.1448108610002	0.75	6	late	em_task_post	n/a	n/a	n/a	n/a	n/a
168.0	1.5	7	early	stimulus	n/a	52.5	n/a	n/a	n/a
173.5	0.5	7	early	dm_task_pre	n/a	n/a	n/a	n/a	n/a
174.0	0.675342216999979	7	early	dm_task	0.675342216999979	n/a	4.0	-1.0	n/a
174.67534221699998	0.75	7	early	dm_task_post	n/a	n/a	n/a	n/a	n/a
185.5	0.5	7	early	em_task_pre	n/a	n/a	n/a	n/a	n/a
186.0	1.2675266080000007	7	early	em_task	n/a	n/a	n/a	n/a	53.913993264752
187.267526608	0.75	7	early	em_task_post	n/a	n/a	n/a	n/a	n/a
196.0	1.5	8	early	stimulus	n/a	67.5	n/a	n/a	n/a
201.5	0.5	8	early	dm_task_pre	n/a	n/a	n/a	n/a	n/a
202.0	0.979710035000153	8	early	dm_task	0.979710035000153	n/a	0.0	-1.0	n/a
202.97971003500015	0.75	8	early	dm_task_post	n/a	n/a	n/a	n/a	n/a
213.5	0.5	8	early	em_task_pre	n/a	n/a	n/a	n/a	n/a
214.0	1.5732931100005985	8	early	em_task	n/a	n/a	n/a	n/a	68.2185490475466
215.5732931100006	0.75	8	early	em_task_post	n/a	n/a	n/a	n/a	n/a
224.0	1.5	9	early	stimulus	n/a	112.5	n/a	n/a	n/a
229.5	0.5	9	early	dm_task_pre	n/a	n/a	n/a	n/a	n/a
230.0	0.951341350999883	9	early	dm_task	0.951341350999883	n/a	4.0	-1.0	n/a
230.95134135099988	0.75	9	early	dm_task_post	n/a	n/a	n/a	n/a	n/a
241.5	0.5	9	early	em_task_pre	n/a	n/a	n/a	n/a	n/a
242.0	3.3138008270003	9	early	em_task	n/a	n/a	n/a	n/a	126.348332033755
245.3138008270003	0.75	9	early	em_task_post	n/a	n/a	n/a	n/a	n/a
252.0	1.5	10	early	stimulus	n/a	22.5	n/a	n/a	n/a
257.5	0.5	10	early	dm_task_pre	n/a	n/a	n/a	n/a	n/a
258.0	0.973335056000451	10	early	dm_task	0.973335056000451	n/a	0.0	-1.0	n/a
258.97333505600045	0.75	10	early	dm_task_post	n/a	n/a	n/a	n/a	n/a
269.5	0.5	10	early	em_task_pre	n/a	n/a	n/a	n/a	n/a
270.0	2.5539964009998997	10	early	em_task	n/a	n/a	n/a	n/a	25.0369805181025
272.5539964009999	0.75	10	early	em_task_post	n/a	n/a	n/a	n/a	n/a
280.0	1.5	11	late	stimulus	n/a	150.0	n/a	n/a	n/a
291.5	0.5	11	late	dm_task_pre	n/a	n/a	n/a	n/a	n/a
292.0	1.16207114800045	11	late	dm_task	1.16207114800045	n/a	0.0	-1.0	n/a
293.16207114800045	0.75	11	late	dm_task_post	n/a	n/a	n/a	n/a	n/a
297.5	0.5	11	late	em_task_pre	n/a	n/a	n/a	n/a	n/a
298.0	1.8948726410003012	11	late	em_task	n/a	n/a	n/a	n/a	128.033545615429
299.8948726410003	0.75	11	late	em_task_post	n/a	n/a	n/a	n/a	n/a
308.0	1.5	12	late	stimulus	n/a	0.0	n/a	n/a	n/a
319.5	0.5	12	late	dm_task_pre	n/a	n/a	n/a	n/a	n/a
320.0	0.602287481000076	12	late	dm_task	0.602287481000076	n/a	-21.0	1.0	n/a
320.6022874810001	0.75	12	late	dm_task_post	n/a	n/a	n/a	n/a	n/a
325.5	0.5	12	late	em_task_pre	n/a	n/a	n/a	n/a	n/a
326.0	2.7502921429999994	12	late	em_task	n/a	n/a	n/a	n/a	11.8606684047365
328.750292143	0.75	12	late	em_task_post	n/a	n/a	n/a	n/a	n/a
