onset	duration	trial	trial_type	event_type	response_time	value_stimulus	value_reference	response_decision	response_estimation
0.0	1.5	1	early	stimulus	n/a	127.5	n/a	n/a	n/a
5.5	0.5	1	early	dm_task_pre	n/a	n/a	n/a	n/a	n/a
6.0	0.711529416032135	1	early	dm_task	0.711529416032135	n/a	-21.0	1.0	n/a
6.7115294160321355	0.75	1	early	dm_task_post	n/a	n/a	n/a	n/a	n/a
17.5	0.5	1	early	em_task_pre	n/a	n/a	n/a	n/a	n/a
18.0	2.0243594730272996	1	early	em_task	n/a	n/a	n/a	n/a	119.292108152813
20.0243594730273	0.75	1	early	em_task_post	n/a	n/a	n/a	n/a	n/a
28.0	1.5	2	late	stimulus	n/a	15.0	n/a	n/a	n/a
39.5	0.5	2	late	dm_task_pre	n/a	n/a	n/a	n/a	n/a
40.0	0.715251622255892	2	late	dm_task	0.715251622255892	n/a	4.0	1.0	n/a
40.71525162225589	0.75	2	late	dm_task_post	n/a	n/a	n/a	n/a	n/a
45.5	0.5	2	late	em_task_pre	n/a	n/a	n/a	n/a	n/a
46.0	1.7649738378823017	2	late	em_task	n/a	n/a	n/a	n/a	22.069001953217
47.7649738378823	0.75	2	late	em_task_post	n/a	n/a	n/a	n/a	n/a
56.0	1.5	3	early	stimulus	n/a	172.5	n/a	n/a	n/a
61.5	0.5	3	early	dm_task_pre	n/a	n/a	n/a	n/a	n/a
62.0	0.657673947047442	3	early	dm_task	0.657673947047442	n/a	0.0	-1.0	n/a
62.65767394704744	0.75	3	early	dm_task_post	n/a	n/a	n/a	n/a	n/a
73.5	0.5	3	early	em_task_pre	n/a	n/a	n/a	n/a	n/a
74.0	2.8021682160905996	3	early	em_task	n/a	n/a	n/a	n/a	163.853368614507
76.80216821609059	0.75	3	early	em_task_post	n/a	n/a	n/a	n/a	n/a
84.0	1.5	4	late	stimulus	n/a	157.5	n/a	n/a	n/a
95.5	0.5	4	late	dm_task_pre	n/a	n/a	n/a	n/a	n/a
96.0	0.74586625630036	4	late	dm_task	0.74586625630036	n/a	-21.0	1.0	n/a
96.74586625630036	0.75	4	late	dm_task_post	n/a	n/a	n/a	n/a	n/a
101.5	0.5	4	late	em_task_pre	n/a	n/a	n/a	n/a	n/a
102.0	4.192120281979399	4	late	em_task	n/a	n/a	n/a	n/a	155.465404158142
106.1921202819794	0.75	4	late	em_task_post	n/a	n/a	n/a	n/a	n/a
112.0	1.5	5	early	stimulus	n/a	120.0	n/a	n/a	n/a
117.5	0.5	5	early	dm_task_pre	n/a	n/a	n/a	n/a	n/a
118.0	1.05347187723964	5	early	dm_task	1.05347187723964	n/a	-4.0	1.0	n/a
119.05347187723964	0.75	5	early	dm_task_post	n/a	n/a	n/a	n/a	n/a
129.5	0.5	5	early	em_task_pre	n/a	n/a	n/a	n/a	n/a
130.0	3.3829687461257016	5	early	em_task	n/a	n/a	n/a	n/a	110.726778340743
133.3829687461257	0.75	5	early	em_task_post	n/a	n/a	n/a	n/a	n/a
140.0	1.5	6	late	stimulus	n/a	90.0	n/a	n/a	n/a
151.5	0.5	6	late	dm_task_pre	n/a	n/a	n/a	n/a	n/a
152.0	0.92563394503668	6	late	dm_task	0.92563394503668	n/a	-4.0	1.0	n/a
152.92563394503668	0.75	6	late	dm_task_post	n/a	n/a	n/a	n/a	n/a
157.5	0.5	6	late	em_task_pre	n/a	n/a	n/a	n/a	n/a
158.0	3.5554575570859015	6	late	em_task	n/a	n/a	n/a	n/a	91.6948746599575
161.5554575570859	0.75	6	late	em_task_post	n/a	n/a	n/a	n/a	n/a
168.0	1.5	7	early	stimulus	n/a	135.0	n/a	n/a	n/a
173.5	0.5	7	early	dm_task_pre	n/a	n/a	n/a	n/a	n/a
174.0	0.949856739956886	7	early	dm_task	0.949856739956886	n/a	21.0	-1.0	n/a
174.94985673995689	0.75	7	early	dm_task_post	n/a	n/a	n/a	n/a	n/a
185.5	0.5	7	early	em_task_pre	n/a	n/a	n/a	n/a	n/a
186.0	4.211447461973901	7	early	em_task	n/a	n/a	n/a	n/a	124.951593200791
190.2114474619739	0.75	7	early	em_task_post	n/a	n/a	n/a	n/a	n/a
196.0	1.5	8	late	stimulus	n/a	97.5	n/a	n/a	n/a
207.5	0.5	8	late	dm_task_pre	n/a	n/a	n/a	n/a	n/a
208.0	0.587846837937832	8	late	dm_task	0.587846837937832	n/a	21.0	-1.0	n/a
208.58784683793783	0.75	8	late	dm_task_post	n/a	n/a	n/a	n/a	n/a
213.5	0.5	8	late	em_task_pre	n/a	n/a	n/a	n/a	n/a
214.0	3.535577203147099	8	late	em_task	n/a	n/a	n/a	n/a	98.781275323313
217.5355772031471	0.75	8	late	em_task_post	n/a	n/a	n/a	n/a	n/a
224.0	1.5	9	late	stimulus	n/a	165.0	n/a	n/a	n/a
235.5	0.5	9	late	dm_task_pre	n/a	n/a	n/a	n/a	n/a
236.0	0.66110808821395	9	late	dm_task	0.66110808821395	n/a	21.0	-1.0	n/a
236.66110808821395	0.75	9	late	dm_task_post	n/a	n/a	n/a	n/a	n/a
241.5	0.5	9	late	em_task_pre	n/a	n/a	n/a	n/a	n/a
242.0	4.258203523233501	9	late	em_task	n/a	n/a	n/a	n/a	161.954634774676
246.2582035232335	0.75	9	late	em_task_post	n/a	n/a	n/a	n/a	n/a
252.0	1.5	10	early	stimulus	n/a	52.5	n/a	n/a	n/a
257.5	0.5	10	early	dm_task_pre	n/a	n/a	n/a	n/a	n/a
258.0	0.753073084168136	10	early	dm_task	0.753073084168136	n/a	-21.0	1.0	n/a
258.75307308416814	0.75	10	early	dm_task_post	n/a	n/a	n/a	n/a	n/a
269.5	0.5	10	early	em_task_pre	n/a	n/a	n/a	n/a	n/a
270.0	3.081191048026099	10	early	em_task	n/a	n/a	n/a	n/a	51.4827420052863
273.0811910480261	0.75	10	early	em_task_post	n/a	n/a	n/a	n/a	n/a
280.0	1.5	11	late	stimulus	n/a	60.0	n/a	n/a	n/a
291.5	0.5	11	late	dm_task_pre	n/a	n/a	n/a	n/a	n/a
292.0	0.907197161111981	11	late	dm_task	0.907197161111981	n/a	-4.0	-1.0	n/a
292.907197161112	0.75	11	late	dm_task_post	n/a	n/a	n/a	n/a	n/a
297.5	0.5	11	late	em_task_pre	n/a	n/a	n/a	n/a	n/a
298.0	2.905315165873599	11	late	em_task	n/a	n/a	n/a	n/a	54.6821713665014
300.9053151658736	0.75	11	late	em_task_post	n/a	n/a	n/a	n/a	n/a
308.0	1.5	12	late	stimulus	n/a	45.0	n/a	n/a	n/a
319.5	0.5	12	late	dm_task_pre	n/a	n/a	n/a	n/a	n/a
320.0	0.880673178937286	12	late	dm_task	0.880673178937286	n/a	4.0	-1.0	n/a
320.8806731789373	0.75	12	late	dm_task_post	n/a	n/a	n/a	n/a	n/a
325.5	0.5	12	late	em_task_pre	n/a	n/a	n/a	n/a	n/a
326.0	4.5	12	late	em_task	n/a	n/a	n/a	n/a	n/a
330.5	0.75	12	late	em_task_post	n/a	n/a	n/a	n/a	n/a
