onset	duration	trial	trial_type	event_type	response_time	value_stimulus	value_reference	response_decision	response_estimation
0.0	1.5	1	early	stimulus	n/a	127.5	n/a	n/a	n/a
5.5	0.5	1	early	dm_task_pre	n/a	n/a	n/a	n/a	n/a
6.0	0.788222372997552	1	early	dm_task	0.788222372997552	n/a	21.0	-1.0	n/a
6.788222372997552	0.75	1	early	dm_task_post	n/a	n/a	n/a	n/a	n/a
17.5	0.5	1	early	em_task_pre	n/a	n/a	n/a	n/a	n/a
18.0	2.7831630820873983	1	early	em_task	n/a	n/a	n/a	n/a	111.696189704718
20.7831630820874	0.75	1	early	em_task_post	n/a	n/a	n/a	n/a	n/a
28.0	1.5	2	early	stimulus	n/a	90.0	n/a	n/a	n/a
33.5	0.5	2	early	dm_task_pre	n/a	n/a	n/a	n/a	n/a
34.0	0.793271614937112	2	early	dm_task	0.793271614937112	n/a	-4.0	1.0	n/a
34.79327161493711	0.75	2	early	dm_task_post	n/a	n/a	n/a	n/a	n/a
45.5	0.5	2	early	em_task_pre	n/a	n/a	n/a	n/a	n/a
46.0	2.2719193620141986	2	early	em_task	n/a	n/a	n/a	n/a	102.735706952792
48.2719193620142	0.75	2	early	em_task_post	n/a	n/a	n/a	n/a	n/a
56.0	1.5	3	early	stimulus	n/a	112.5	n/a	n/a	n/a
61.5	0.5	3	early	dm_task_pre	n/a	n/a	n/a	n/a	n/a
62.0	0.867158225970343	3	early	dm_task	0.867158225970343	n/a	4.0	-1.0	n/a
62.86715822597034	0.75	3	early	dm_task_post	n/a	n/a	n/a	n/a	n/a
73.5	0.5	3	early	em_task_pre	n/a	n/a	n/a	n/a	n/a
74.0	1.9457250619306983	3	early	em_task	n/a	n/a	n/a	n/a	103.753655967983
75.9457250619307	0.75	3	early	em_task_post	n/a	n/a	n/a	n/a	n/a
84.0	1.5	4	late	stimulus	n/a	15.0	n/a	n/a	n/a
95.5	0.5	4	late	dm_task_pre	n/a	n/a	n/a	n/a	n/a
96.0	0.903626437997445	4	late	dm_task	0.903626437997445	n/a	4.0	-1.0	n/a
96.90362643799745	0.75	4	late	dm_task_post	n/a	n/a	n/a	n/a	n/a
101.5	0.5	4	late	em_task_pre	n/a	n/a	n/a	n/a	n/a
102.0	3.052237208932599	4	late	em_task	n/a	n/a	n/a	n/a	24.7878653987488
105.0522372089326	0.75	4	late	em_task_post	n/a	n/a	n/a	n/a	n/a
112.0	1.5	5	late	stimulus	n/a	150.0	n/a	n/a	n/a
123.5	0.5	5	late	dm_task_pre	n/a	n/a	n/a	n/a	n/a
124.0	0.843945039901882	5	late	dm_task	0.843945039901882	n/a	0.0	1.0	n/a
124.84394503990188	0.75	5	late	dm_task_post	n/a	n/a	n/a	n/a	n/a
129.5	0.5	5	late	em_task_pre	n/a	n/a	n/a	n/a	n/a
130.0	3.6750379819422996	5	late	em_task	n/a	n/a	n/a	n/a	158.712500725848
133.6750379819423	0.75	5	late	em_task_post	n/a	n/a	n/a	n/a	n/a
140.0	1.5	6	late	stimulus	n/a	172.5	n/a	n/a	n/a
151.5	0.5	6	late	dm_task_pre	n/a	n/a	n/a	n/a	n/a
152.0	0.733814320061356	6	late	dm_task	0.733814320061356	n/a	-21.0	1.0	n/a
152.73381432006136	0.75	6	late	dm_task_post	n/a	n/a	n/a	n/a	n/a
157.5	0.5	6	late	em_task_pre	n/a	n/a	n/a	n/a	n/a
158.0	1.8310708759818013	6	late	em_task	n/a	n/a	n/a	n/a	167.022243518007
159.8310708759818	0.75	6	late	em_task_post	n/a	n/a	n/a	n/a	n/a
168.0	1.5	7	late	stimulus	n/a	7.5	n/a	n/a	n/a
179.5	0.5	7	late	dm_task_pre	n/a	n/a	n/a	n/a	n/a
180.0	1.39006901998073	7	late	dm_task	1.39006901998073	n/a	4.0	1.0	n/a
181.39006901998073	0.75	7	late	dm_task_post	n/a	n/a	n/a	n/a	n/a
185.5	0.5	7	late	em_task_pre	n/a	n/a	n/a	n/a	n/a
186.0	4.104512460995501	7	late	em_task	n/a	n/a	n/a	n/a	11.1658982165483
190.1045124609955	0.75	7	late	em_task_post	n/a	n/a	n/a	n/a	n/a
196.0	1.5	8	early	stimulus	n/a	60.0	n/a	n/a	n/a
201.5	0.5	8	early	dm_task_pre	n/a	n/a	n/a	n/a	n/a
202.0	0.749276217073202	8	early	dm_task	0.749276217073202	n/a	4.0	-1.0	n/a
202.7492762170732	0.75	8	early	dm_task_post	n/a	n/a	n/a	n/a	n/a
213.5	0.5	8	early	em_task_pre	n/a	n/a	n/a	n/a	n/a
214.0	4.059980941005101	8	early	em_task	n/a	n/a	n/a	n/a	65.8343851592054
218.0599809410051	0.75	8	early	em_task_post	n/a	n/a	n/a	n/a	n/a
224.0	1.5	9	late	stimulus	n/a	142.5	n/a	n/a	n/a
235.5	0.5	9	late	dm_task_pre	n/a	n/a	n/a	n/a	n/a
236.0	0.91963943396695	9	late	dm_task	0.91963943396695	n/a	4.0	-1.0	n/a
236.91963943396695	0.75	9	late	dm_task_post	n/a	n/a	n/a	n/a	n/a
241.5	0.5	9	late	em_task_pre	n/a	n/a	n/a	n/a	n/a
242.0	3.4844488978852013	9	late	em_task	n/a	n/a	n/a	n/a	148.468417701397
245.48444889788522	0.75	9	late	em_task_post	n/a	n/a	n/a	n/a	n/a
252.0	1.5	10	late	stimulus	n/a	165.0	n/a	n/a	n/a
263.5	0.5	10	late	dm_task_pre	n/a	n/a	n/a	n/a	n/a
264.0	1.1430524229072	10	late	dm_task	1.1430524229072	n/a	0.0	-1.0	n/a
265.1430524229072	0.75	10	late	dm_task_post	n/a	n/a	n/a	n/a	n/a
269.5	0.5	10	late	em_task_pre	n/a	n/a	n/a	n/a	n/a
270.0	3.4235189370810986	10	late	em_task	n/a	n/a	n/a	n/a	152.475603129853
273.4235189370811	0.75	10	late	em_task_post	n/a	n/a	n/a	n/a	n/a
280.0	1.5	11	late	stimulus	n/a	52.5	n/a	n/a	n/a
291.5	0.5	11	late	dm_task_pre	n/a	n/a	n/a	n/a	n/a
292.0	1.00006541796029	11	late	dm_task	1.00006541796029	n/a	4.0	1.0	n/a
293.0000654179603	0.75	11	late	dm_task_post	n/a	n/a	n/a	n/a	n/a
297.5	0.5	11	late	em_task_pre	n/a	n/a	n/a	n/a	n/a
298.0	4.2474579799455014	11	late	em_task	n/a	n/a	n/a	n/a	49.915013808817
302.2474579799455	0.75	11	late	em_task_post	n/a	n/a	n/a	n/a	n/a
308.0	1.5	12	late	stimulus	n/a	105.0	n/a	n/a	n/a
319.5	0.5	12	late	dm_task_pre	n/a	n/a	n/a	n/a	n/a
320.0	1.12274994095787	12	late	dm_task	1.12274994095787	n/a	-4.0	-1.0	n/a
321.1227499409579	0.75	12	late	dm_task_post	n/a	n/a	n/a	n/a	n/a
325.5	0.5	12	late	em_task_pre	n/a	n/a	n/a	n/a	n/a
326.0	2.637162681901799	12	late	em_task	n/a	n/a	n/a	n/a	115.995537184766
328.6371626819018	0.75	12	late	em_task_post	n/a	n/a	n/a	n/a	n/a
