onset	duration	trial	trial_type	event_type	response_time	value_stimulus	value_reference	response_decision	response_estimation
0.0	1.5	1	late	stimulus	n/a	165.0	n/a	n/a	n/a
11.5	0.5	1	late	dm_task_pre	n/a	n/a	n/a	n/a	n/a
12.0	0.502395057003014	1	late	dm_task	0.502395057003014	n/a	-21.0	1.0	n/a
12.502395057003014	0.75	1	late	dm_task_post	n/a	n/a	n/a	n/a	n/a
17.5	0.5	1	late	em_task_pre	n/a	n/a	n/a	n/a	n/a
18.0	1.5673569229983997	1	late	em_task	n/a	n/a	n/a	n/a	159.504642751231
19.5673569229984	0.75	1	late	em_task_post	n/a	n/a	n/a	n/a	n/a
28.0	1.5	2	late	stimulus	n/a	105.0	n/a	n/a	n/a
39.5	0.5	2	late	dm_task_pre	n/a	n/a	n/a	n/a	n/a
40.0	0.675020252994727	2	late	dm_task	0.675020252994727	n/a	-21.0	1.0	n/a
40.67502025299473	0.75	2	late	dm_task_post	n/a	n/a	n/a	n/a	n/a
45.5	0.5	2	late	em_task_pre	n/a	n/a	n/a	n/a	n/a
46.0	2.356937902994101	2	late	em_task	n/a	n/a	n/a	n/a	113.096460141207
48.356937902994105	0.75	2	late	em_task_post	n/a	n/a	n/a	n/a	n/a
56.0	1.5	3	late	stimulus	n/a	82.5	n/a	n/a	n/a
67.5	0.5	3	late	dm_task_pre	n/a	n/a	n/a	n/a	n/a
68.0	0.980841458003852	3	late	dm_task	0.980841458003852	n/a	-4.0	-1.0	n/a
68.98084145800385	0.75	3	late	dm_task_post	n/a	n/a	n/a	n/a	n/a
73.5	0.5	3	late	em_task_pre	n/a	n/a	n/a	n/a	n/a
74.0	3.029384715991899	3	late	em_task	n/a	n/a	n/a	n/a	74.3493481610537
77.0293847159919	0.75	3	late	em_task_post	n/a	n/a	n/a	n/a	n/a
84.0	1.5	4	late	stimulus	n/a	157.5	n/a	n/a	n/a
95.5	0.5	4	late	dm_task_pre	n/a	n/a	n/a	n/a	n/a
96.0	0.472706164000556	4	late	dm_task	0.472706164000556	n/a	-21.0	1.0	n/a
96.47270616400056	0.75	4	late	dm_task_post	n/a	n/a	n/a	n/a	n/a
101.5	0.5	4	late	em_task_pre	n/a	n/a	n/a	n/a	n/a
102.0	2.5350921560021007	4	late	em_task	n/a	n/a	n/a	n/a	157.304179728165
104.5350921560021	0.75	4	late	em_task_post	n/a	n/a	n/a	n/a	n/a
112.0	1.5	5	early	stimulus	n/a	60.0	n/a	n/a	n/a
117.5	0.5	5	early	dm_task_pre	n/a	n/a	n/a	n/a	n/a
118.0	0.563324061004096	5	early	dm_task	0.563324061004096	n/a	-4.0	1.0	n/a
118.5633240610041	0.75	5	early	dm_task_post	n/a	n/a	n/a	n/a	n/a
129.5	0.5	5	early	em_task_pre	n/a	n/a	n/a	n/a	n/a
130.0	2.7753377710033007	5	early	em_task	n/a	n/a	n/a	n/a	57.7831565398845
132.7753377710033	0.75	5	early	em_task_post	n/a	n/a	n/a	n/a	n/a
140.0	1.5	6	early	stimulus	n/a	30.0	n/a	n/a	n/a
145.5	0.5	6	early	dm_task_pre	n/a	n/a	n/a	n/a	n/a
146.0	1.22049922699807	6	early	dm_task	1.22049922699807	n/a	4.0	-1.0	n/a
147.22049922699807	0.75	6	early	dm_task_post	n/a	n/a	n/a	n/a	n/a
157.5	0.5	6	early	em_task_pre	n/a	n/a	n/a	n/a	n/a
158.0	1.8488164619921008	6	early	em_task	n/a	n/a	n/a	n/a	18.6735547134569
159.8488164619921	0.75	6	early	em_task_post	n/a	n/a	n/a	n/a	n/a
168.0	1.5	7	early	stimulus	n/a	45.0	n/a	n/a	n/a
173.5	0.5	7	early	dm_task_pre	n/a	n/a	n/a	n/a	n/a
174.0	0.860057981000864	7	early	dm_task	0.860057981000864	n/a	0.0	-1.0	n/a
174.86005798100086	0.75	7	early	dm_task_post	n/a	n/a	n/a	n/a	n/a
185.5	0.5	7	early	em_task_pre	n/a	n/a	n/a	n/a	n/a
186.0	1.3222118709964015	7	early	em_task	n/a	n/a	n/a	n/a	47.5302699560628
187.3222118709964	0.75	7	early	em_task_post	n/a	n/a	n/a	n/a	n/a
196.0	1.5	8	early	stimulus	n/a	97.5	n/a	n/a	n/a
201.5	0.5	8	early	dm_task_pre	n/a	n/a	n/a	n/a	n/a
202.0	0.532431134997751	8	early	dm_task	0.532431134997751	n/a	-21.0	1.0	n/a
202.53243113499775	0.75	8	early	dm_task_post	n/a	n/a	n/a	n/a	n/a
213.5	0.5	8	early	em_task_pre	n/a	n/a	n/a	n/a	n/a
214.0	2.0112855429906986	8	early	em_task	n/a	n/a	n/a	n/a	96.721627726906
216.0112855429907	0.75	8	early	em_task_post	n/a	n/a	n/a	n/a	n/a
224.0	1.5	9	late	stimulus	n/a	142.5	n/a	n/a	n/a
235.5	0.5	9	late	dm_task_pre	n/a	n/a	n/a	n/a	n/a
236.0	1.10460038299789	9	late	dm_task	1.10460038299789	n/a	-21.0	-1.0	n/a
237.1046003829979	0.75	9	late	dm_task_post	n/a	n/a	n/a	n/a	n/a
241.5	0.5	9	late	em_task_pre	n/a	n/a	n/a	n/a	n/a
242.0	2.951092777991999	9	late	em_task	n/a	n/a	n/a	n/a	118.179125597546
244.951092777992	0.75	9	late	em_task_post	n/a	n/a	n/a	n/a	n/a
252.0	1.5	10	early	stimulus	n/a	90.0	n/a	n/a	n/a
257.5	0.5	10	early	dm_task_pre	n/a	n/a	n/a	n/a	n/a
258.0	1.04590208899754	10	early	dm_task	1.04590208899754	n/a	-4.0	1.0	n/a
259.04590208899754	0.75	10	early	dm_task_post	n/a	n/a	n/a	n/a	n/a
269.5	0.5	10	early	em_task_pre	n/a	n/a	n/a	n/a	n/a
270.0	1.5761032899900016	10	early	em_task	n/a	n/a	n/a	n/a	88.0414784221345
271.57610328999	0.75	10	early	em_task_post	n/a	n/a	n/a	n/a	n/a
280.0	1.5	11	early	stimulus	n/a	120.0	n/a	n/a	n/a
285.5	0.5	11	early	dm_task_pre	n/a	n/a	n/a	n/a	n/a
286.0	0.5184672280011	11	early	dm_task	0.5184672280011	n/a	-4.0	-1.0	n/a
286.5184672280011	0.75	11	early	dm_task_post	n/a	n/a	n/a	n/a	n/a
297.5	0.5	11	early	em_task_pre	n/a	n/a	n/a	n/a	n/a
298.0	1.0985233219981012	11	early	em_task	n/a	n/a	n/a	n/a	101.238693887099
299.0985233219981	0.75	11	early	em_task_post	n/a	n/a	n/a	n/a	n/a
308.0	1.5	12	late	stimulus	n/a	127.5	n/a	n/a	n/a
319.5	0.5	12	late	dm_task_pre	n/a	n/a	n/a	n/a	n/a
320.0	0.640950212997268	12	late	dm_task	0.640950212997268	n/a	-4.0	-1.0	n/a
320.64095021299727	0.75	12	late	dm_task_post	n/a	n/a	n/a	n/a	n/a
325.5	0.5	12	late	em_task_pre	n/a	n/a	n/a	n/a	n/a
326.0	2.6208611759938982	12	late	em_task	n/a	n/a	n/a	n/a	102.549118866506
328.6208611759939	0.75	12	late	em_task_post	n/a	n/a	n/a	n/a	n/a
