onset	duration	trial	trial_type	event_type	response_time	value_stimulus	value_reference	response_decision	response_estimation
0.0	1.5	1	late	stimulus	n/a	135.0	n/a	n/a	n/a
11.5	0.5	1	late	dm_task_pre	n/a	n/a	n/a	n/a	n/a
12.0	0.641318883001077	1	late	dm_task	0.641318883001077	n/a	-21.0	1.0	n/a
12.641318883001077	0.75	1	late	dm_task_post	n/a	n/a	n/a	n/a	n/a
17.5	0.5	1	late	em_task_pre	n/a	n/a	n/a	n/a	n/a
18.0	1.8054163090001012	1	late	em_task	n/a	n/a	n/a	n/a	136.374528030196
19.8054163090001	0.75	1	late	em_task_post	n/a	n/a	n/a	n/a	n/a
28.0	1.5	2	early	stimulus	n/a	120.0	n/a	n/a	n/a
33.5	0.5	2	early	dm_task_pre	n/a	n/a	n/a	n/a	n/a
34.0	0.581668679000359	2	early	dm_task	0.581668679000359	n/a	21.0	-1.0	n/a
34.58166867900036	0.75	2	early	dm_task_post	n/a	n/a	n/a	n/a	n/a
45.5	0.5	2	early	em_task_pre	n/a	n/a	n/a	n/a	n/a
46.0	1.7927287060010997	2	early	em_task	n/a	n/a	n/a	n/a	110.950486987766
47.7927287060011	0.75	2	early	em_task_post	n/a	n/a	n/a	n/a	n/a
56.0	1.5	3	late	stimulus	n/a	30.0	n/a	n/a	n/a
67.5	0.5	3	late	dm_task_pre	n/a	n/a	n/a	n/a	n/a
68.0	1.16675758200108	3	late	dm_task	1.16675758200108	n/a	4.0	1.0	n/a
69.16675758200108	0.75	3	late	dm_task_post	n/a	n/a	n/a	n/a	n/a
73.5	0.5	3	late	em_task_pre	n/a	n/a	n/a	n/a	n/a
74.0	2.8630166130005996	3	late	em_task	n/a	n/a	n/a	n/a	40.3222495441837
76.8630166130006	0.75	3	late	em_task_post	n/a	n/a	n/a	n/a	n/a
84.0	1.5	4	early	stimulus	n/a	60.0	n/a	n/a	n/a
89.5	0.5	4	early	dm_task_pre	n/a	n/a	n/a	n/a	n/a
90.0	0.640415095000208	4	early	dm_task	0.640415095000208	n/a	21.0	-1.0	n/a
90.64041509500021	0.75	4	early	dm_task_post	n/a	n/a	n/a	n/a	n/a
101.5	0.5	4	early	em_task_pre	n/a	n/a	n/a	n/a	n/a
102.0	2.1012205509995994	4	early	em_task	n/a	n/a	n/a	n/a	75.371710420017
104.1012205509996	0.75	4	early	em_task_post	n/a	n/a	n/a	n/a	n/a
112.0	1.5	5	early	stimulus	n/a	97.5	n/a	n/a	n/a
117.5	0.5	5	early	dm_task_pre	n/a	n/a	n/a	n/a	n/a
118.0	1.11087103099999	5	early	dm_task	1.11087103099999	n/a	-4.0	-1.0	n/a
119.11087103099999	0.75	5	early	dm_task_post	n/a	n/a	n/a	n/a	n/a
129.5	0.5	5	early	em_task_pre	n/a	n/a	n/a	n/a	n/a
130.0	1.7063904130009	5	early	em_task	n/a	n/a	n/a	n/a	100.512749954638
131.7063904130009	0.75	5	early	em_task_post	n/a	n/a	n/a	n/a	n/a
140.0	1.5	6	late	stimulus	n/a	150.0	n/a	n/a	n/a
151.5	0.5	6	late	dm_task_pre	n/a	n/a	n/a	n/a	n/a
152.0	0.688308520000646	6	late	dm_task	0.688308520000646	n/a	21.0	-1.0	n/a
152.68830852000065	0.75	6	late	dm_task_post	n/a	n/a	n/a	n/a	n/a
157.5	0.5	6	late	em_task_pre	n/a	n/a	n/a	n/a	n/a
158.0	2.0774982830008	6	late	em_task	n/a	n/a	n/a	n/a	148.422621897346
160.0774982830008	0.75	6	late	em_task_post	n/a	n/a	n/a	n/a	n/a
168.0	1.5	7	early	stimulus	n/a	172.5	n/a	n/a	n/a
173.5	0.5	7	early	dm_task_pre	n/a	n/a	n/a	n/a	n/a
174.0	0.508019173999855	7	early	dm_task	0.508019173999855	n/a	-21.0	1.0	n/a
174.50801917399986	0.75	7	early	dm_task_post	n/a	n/a	n/a	n/a	n/a
185.5	0.5	7	early	em_task_pre	n/a	n/a	n/a	n/a	n/a
186.0	3.7631885370009996	7	early	em_task	n/a	n/a	n/a	n/a	164.490121855249
189.76318853700099	0.75	7	early	em_task_post	n/a	n/a	n/a	n/a	n/a
196.0	1.5	8	early	stimulus	n/a	157.5	n/a	n/a	n/a
201.5	0.5	8	early	dm_task_pre	n/a	n/a	n/a	n/a	n/a
202.0	0.673894024999754	8	early	dm_task	0.673894024999754	n/a	0.0	1.0	n/a
202.67389402499975	0.75	8	early	dm_task_post	n/a	n/a	n/a	n/a	n/a
213.5	0.5	8	early	em_task_pre	n/a	n/a	n/a	n/a	n/a
214.0	1.9010373370002007	8	early	em_task	n/a	n/a	n/a	n/a	168.0537025096
215.9010373370002	0.75	8	early	em_task_post	n/a	n/a	n/a	n/a	n/a
224.0	1.5	9	late	stimulus	n/a	7.5	n/a	n/a	n/a
235.5	0.5	9	late	dm_task_pre	n/a	n/a	n/a	n/a	n/a
236.0	0.575560314000541	9	late	dm_task	0.575560314000541	n/a	-21.0	1.0	n/a
236.57556031400054	0.75	9	late	dm_task_post	n/a	n/a	n/a	n/a	n/a
241.5	0.5	9	late	em_task_pre	n/a	n/a	n/a	n/a	n/a
242.0	3.222722646000001	9	late	em_task	n/a	n/a	n/a	n/a	11.6419653219417
245.222722646	0.75	9	late	em_task_post	n/a	n/a	n/a	n/a	n/a
252.0	1.5	10	late	stimulus	n/a	165.0	n/a	n/a	n/a
263.5	0.5	10	late	dm_task_pre	n/a	n/a	n/a	n/a	n/a
264.0	0.596559749999869	10	late	dm_task	0.596559749999869	n/a	-21.0	1.0	n/a
264.59655974999987	0.75	10	late	dm_task_post	n/a	n/a	n/a	n/a	n/a
269.5	0.5	10	late	em_task_pre	n/a	n/a	n/a	n/a	n/a
270.0	2.5605276080004984	10	late	em_task	n/a	n/a	n/a	n/a	165.18203992425
272.5605276080005	0.75	10	late	em_task_post	n/a	n/a	n/a	n/a	n/a
280.0	1.5	11	early	stimulus	n/a	82.5	n/a	n/a	n/a
285.5	0.5	11	early	dm_task_pre	n/a	n/a	n/a	n/a	n/a
286.0	1.03900788600004	11	early	dm_task	1.03900788600004	n/a	0.0	1.0	n/a
287.03900788600004	0.75	11	early	dm_task_post	n/a	n/a	n/a	n/a	n/a
297.5	0.5	11	early	em_task_pre	n/a	n/a	n/a	n/a	n/a
298.0	3.947003983001199	11	early	em_task	n/a	n/a	n/a	n/a	89.4609340754556
301.9470039830012	0.75	11	early	em_task_post	n/a	n/a	n/a	n/a	n/a
308.0	1.5	12	early	stimulus	n/a	45.0	n/a	n/a	n/a
313.5	0.5	12	early	dm_task_pre	n/a	n/a	n/a	n/a	n/a
314.0	0.611633878001157	12	early	dm_task	0.611633878001157	n/a	-4.0	1.0	n/a
314.61163387800116	0.75	12	early	dm_task_post	n/a	n/a	n/a	n/a	n/a
325.5	0.5	12	early	em_task_pre	n/a	n/a	n/a	n/a	n/a
326.0	3.0339550589997017	12	early	em_task	n/a	n/a	n/a	n/a	72.4997070736332
329.0339550589997	0.75	12	early	em_task_post	n/a	n/a	n/a	n/a	n/a
