onset	duration	trial	trial_type	event_type	response_time	value_stimulus	value_reference	response_decision	response_estimation
0.0	1.5	1	late	stimulus	n/a	127.5	n/a	n/a	n/a
11.5	0.5	1	late	dm_task_pre	n/a	n/a	n/a	n/a	n/a
12.0	0.622356633000891	1	late	dm_task	0.622356633000891	n/a	4.0	-1.0	n/a
12.62235663300089	0.75	1	late	dm_task_post	n/a	n/a	n/a	n/a	n/a
17.5	0.5	1	late	em_task_pre	n/a	n/a	n/a	n/a	n/a
18.0	2.952224398000901	1	late	em_task	n/a	n/a	n/a	n/a	125.243684009296
20.9522243980009	0.75	1	late	em_task_post	n/a	n/a	n/a	n/a	n/a
28.0	1.5	2	early	stimulus	n/a	52.5	n/a	n/a	n/a
33.5	0.5	2	early	dm_task_pre	n/a	n/a	n/a	n/a	n/a
34.0	1.27854312999989	2	early	dm_task	1.27854312999989	n/a	0.0	-1.0	n/a
35.27854312999989	0.75	2	early	dm_task_post	n/a	n/a	n/a	n/a	n/a
45.5	0.5	2	early	em_task_pre	n/a	n/a	n/a	n/a	n/a
46.0	0.6107035690002007	2	early	em_task	n/a	n/a	n/a	n/a	106.190750563936
46.6107035690002	0.75	2	early	em_task_post	n/a	n/a	n/a	n/a	n/a
56.0	1.5	3	late	stimulus	n/a	75.0	n/a	n/a	n/a
67.5	0.5	3	late	dm_task_pre	n/a	n/a	n/a	n/a	n/a
68.0	0.667660314000386	3	late	dm_task	0.667660314000386	n/a	-21.0	1.0	n/a
68.66766031400039	0.75	3	late	dm_task_post	n/a	n/a	n/a	n/a	n/a
73.5	0.5	3	late	em_task_pre	n/a	n/a	n/a	n/a	n/a
74.0	2.3608549359997006	3	late	em_task	n/a	n/a	n/a	n/a	83.2897648690597
76.3608549359997	0.75	3	late	em_task_post	n/a	n/a	n/a	n/a	n/a
84.0	1.5	4	early	stimulus	n/a	112.5	n/a	n/a	n/a
89.5	0.5	4	early	dm_task_pre	n/a	n/a	n/a	n/a	n/a
90.0	0.820653746000971	4	early	dm_task	0.820653746000971	n/a	0.0	-1.0	n/a
90.82065374600097	0.75	4	early	dm_task_post	n/a	n/a	n/a	n/a	n/a
101.5	0.5	4	early	em_task_pre	n/a	n/a	n/a	n/a	n/a
102.0	2.550279744000399	4	early	em_task	n/a	n/a	n/a	n/a	108.421764378146
104.55027974400039	0.75	4	early	em_task_post	n/a	n/a	n/a	n/a	n/a
112.0	1.5	5	early	stimulus	n/a	37.5	n/a	n/a	n/a
117.5	0.5	5	early	dm_task_pre	n/a	n/a	n/a	n/a	n/a
118.0	0.631528088000778	5	early	dm_task	0.631528088000778	n/a	-21.0	1.0	n/a
118.63152808800078	0.75	5	early	dm_task_post	n/a	n/a	n/a	n/a	n/a
129.5	0.5	5	early	em_task_pre	n/a	n/a	n/a	n/a	n/a
130.0	1.6362997850010004	5	early	em_task	n/a	n/a	n/a	n/a	35.0080975948528
131.636299785001	0.75	5	early	em_task_post	n/a	n/a	n/a	n/a	n/a
140.0	1.5	6	late	stimulus	n/a	15.0	n/a	n/a	n/a
151.5	0.5	6	late	dm_task_pre	n/a	n/a	n/a	n/a	n/a
152.0	0.71926549499949	6	late	dm_task	0.71926549499949	n/a	0.0	1.0	n/a
152.7192654949995	0.75	6	late	dm_task_post	n/a	n/a	n/a	n/a	n/a
157.5	0.5	6	late	em_task_pre	n/a	n/a	n/a	n/a	n/a
158.0	2.7144977730003994	6	late	em_task	n/a	n/a	n/a	n/a	23.2149715903219
160.7144977730004	0.75	6	late	em_task_post	n/a	n/a	n/a	n/a	n/a
168.0	1.5	7	early	stimulus	n/a	67.5	n/a	n/a	n/a
173.5	0.5	7	early	dm_task_pre	n/a	n/a	n/a	n/a	n/a
174.0	0.583449957000994	7	early	dm_task	0.583449957000994	n/a	21.0	-1.0	n/a
174.583449957001	0.75	7	early	dm_task_post	n/a	n/a	n/a	n/a	n/a
185.5	0.5	7	early	em_task_pre	n/a	n/a	n/a	n/a	n/a
186.0	2.660188714000501	7	early	em_task	n/a	n/a	n/a	n/a	73.4202523432775
188.6601887140005	0.75	7	early	em_task_post	n/a	n/a	n/a	n/a	n/a
196.0	1.5	8	early	stimulus	n/a	0.0	n/a	n/a	n/a
201.5	0.5	8	early	dm_task_pre	n/a	n/a	n/a	n/a	n/a
202.0	0.930301456999587	8	early	dm_task	0.930301456999587	n/a	0.0	-1.0	n/a
202.9303014569996	0.75	8	early	dm_task_post	n/a	n/a	n/a	n/a	n/a
213.5	0.5	8	early	em_task_pre	n/a	n/a	n/a	n/a	n/a
214.0	2.1661481890004985	8	early	em_task	n/a	n/a	n/a	n/a	172.647681199171
216.1661481890005	0.75	8	early	em_task_post	n/a	n/a	n/a	n/a	n/a
224.0	1.5	9	late	stimulus	n/a	142.5	n/a	n/a	n/a
235.5	0.5	9	late	dm_task_pre	n/a	n/a	n/a	n/a	n/a
236.0	1.00603648200013	9	late	dm_task	1.00603648200013	n/a	-4.0	1.0	n/a
237.00603648200013	0.75	9	late	dm_task_post	n/a	n/a	n/a	n/a	n/a
241.5	0.5	9	late	em_task_pre	n/a	n/a	n/a	n/a	n/a
242.0	2.1576084139997	9	late	em_task	n/a	n/a	n/a	n/a	146.073295900085
244.1576084139997	0.75	9	late	em_task_post	n/a	n/a	n/a	n/a	n/a
252.0	1.5	10	early	stimulus	n/a	22.5	n/a	n/a	n/a
257.5	0.5	10	early	dm_task_pre	n/a	n/a	n/a	n/a	n/a
258.0	0.979272144000788	10	early	dm_task	0.979272144000788	n/a	4.0	1.0	n/a
258.9792721440008	0.75	10	early	dm_task_post	n/a	n/a	n/a	n/a	n/a
269.5	0.5	10	early	em_task_pre	n/a	n/a	n/a	n/a	n/a
270.0	3.0564981250009	10	early	em_task	n/a	n/a	n/a	n/a	25.6971572871865
273.05649812500087	0.75	10	early	em_task_post	n/a	n/a	n/a	n/a	n/a
280.0	1.5	11	early	stimulus	n/a	90.0	n/a	n/a	n/a
285.5	0.5	11	early	dm_task_pre	n/a	n/a	n/a	n/a	n/a
286.0	0.65128691100108	11	early	dm_task	0.65128691100108	n/a	-4.0	1.0	n/a
286.6512869110011	0.75	11	early	dm_task_post	n/a	n/a	n/a	n/a	n/a
297.5	0.5	11	early	em_task_pre	n/a	n/a	n/a	n/a	n/a
298.0	3.1614290779999017	11	early	em_task	n/a	n/a	n/a	n/a	87.3079566010964
301.1614290779999	0.75	11	early	em_task_post	n/a	n/a	n/a	n/a	n/a
308.0	1.5	12	late	stimulus	n/a	105.0	n/a	n/a	n/a
319.5	0.5	12	late	dm_task_pre	n/a	n/a	n/a	n/a	n/a
320.0	0.596715916999528	12	late	dm_task	0.596715916999528	n/a	21.0	-1.0	n/a
320.5967159169995	0.75	12	late	dm_task_post	n/a	n/a	n/a	n/a	n/a
325.5	0.5	12	late	em_task_pre	n/a	n/a	n/a	n/a	n/a
326.0	3.3507706580003003	12	late	em_task	n/a	n/a	n/a	n/a	99.9886376857997
329.35077065800033	0.75	12	late	em_task_post	n/a	n/a	n/a	n/a	n/a
