onset	duration	trial	trial_type	event_type	response_time	value_stimulus	value_reference	response_decision	response_estimation
0.0	1.5	1	early	stimulus	n/a	45.0	n/a	n/a	n/a
5.5	0.5	1	early	dm_task_pre	n/a	n/a	n/a	n/a	n/a
6.0	0.73109944299722	1	early	dm_task	0.73109944299722	n/a	0.0	1.0	n/a
6.73109944299722	0.75	1	early	dm_task_post	n/a	n/a	n/a	n/a	n/a
17.5	0.5	1	early	em_task_pre	n/a	n/a	n/a	n/a	n/a
18.0	2.0096560729979984	1	early	em_task	n/a	n/a	n/a	n/a	55.1066915031339
20.009656072998	0.75	1	early	em_task_post	n/a	n/a	n/a	n/a	n/a
28.0	1.5	2	late	stimulus	n/a	75.0	n/a	n/a	n/a
39.5	0.5	2	late	dm_task_pre	n/a	n/a	n/a	n/a	n/a
40.0	0.600166371998057	2	late	dm_task	0.600166371998057	n/a	4.0	-1.0	n/a
40.60016637199806	0.75	2	late	dm_task_post	n/a	n/a	n/a	n/a	n/a
45.5	0.5	2	late	em_task_pre	n/a	n/a	n/a	n/a	n/a
46.0	2.1812874719981004	2	late	em_task	n/a	n/a	n/a	n/a	71.3220940723169
48.181287471998104	0.75	2	late	em_task_post	n/a	n/a	n/a	n/a	n/a
56.0	1.5	3	late	stimulus	n/a	127.5	n/a	n/a	n/a
67.5	0.5	3	late	dm_task_pre	n/a	n/a	n/a	n/a	n/a
68.0	0.903898618998937	3	late	dm_task	0.903898618998937	n/a	-21.0	1.0	n/a
68.90389861899894	0.75	3	late	dm_task_post	n/a	n/a	n/a	n/a	n/a
73.5	0.5	3	late	em_task_pre	n/a	n/a	n/a	n/a	n/a
74.0	2.502146072998599	3	late	em_task	n/a	n/a	n/a	n/a	111.650906309927
76.5021460729986	0.75	3	late	em_task_post	n/a	n/a	n/a	n/a	n/a
84.0	1.5	4	early	stimulus	n/a	7.5	n/a	n/a	n/a
89.5	0.5	4	early	dm_task_pre	n/a	n/a	n/a	n/a	n/a
90.0	0.654610003999551	4	early	dm_task	0.654610003999551	n/a	0.0	1.0	n/a
90.65461000399955	0.75	4	early	dm_task_post	n/a	n/a	n/a	n/a	n/a
101.5	0.5	4	early	em_task_pre	n/a	n/a	n/a	n/a	n/a
102.0	2.242879123998101	4	early	em_task	n/a	n/a	n/a	n/a	16.1529120743132
104.24287912399811	0.75	4	early	em_task_post	n/a	n/a	n/a	n/a	n/a
112.0	1.5	5	early	stimulus	n/a	67.5	n/a	n/a	n/a
117.5	0.5	5	early	dm_task_pre	n/a	n/a	n/a	n/a	n/a
118.0	0.692934433998744	5	early	dm_task	0.692934433998744	n/a	0.0	1.0	n/a
118.69293443399874	0.75	5	early	dm_task_post	n/a	n/a	n/a	n/a	n/a
129.5	0.5	5	early	em_task_pre	n/a	n/a	n/a	n/a	n/a
130.0	2.8766546969999993	5	early	em_task	n/a	n/a	n/a	n/a	82.3318458827215
132.876654697	0.75	5	early	em_task_post	n/a	n/a	n/a	n/a	n/a
140.0	1.5	6	early	stimulus	n/a	60.0	n/a	n/a	n/a
145.5	0.5	6	early	dm_task_pre	n/a	n/a	n/a	n/a	n/a
146.0	0.724072629000148	6	early	dm_task	0.724072629000148	n/a	-4.0	1.0	n/a
146.72407262900015	0.75	6	early	dm_task_post	n/a	n/a	n/a	n/a	n/a
157.5	0.5	6	early	em_task_pre	n/a	n/a	n/a	n/a	n/a
158.0	3.634835132997999	6	early	em_task	n/a	n/a	n/a	n/a	73.6986733211754
161.634835132998	0.75	6	early	em_task_post	n/a	n/a	n/a	n/a	n/a
168.0	1.5	7	late	stimulus	n/a	37.5	n/a	n/a	n/a
179.5	0.5	7	late	dm_task_pre	n/a	n/a	n/a	n/a	n/a
180.0	0.898241446997417	7	late	dm_task	0.898241446997417	n/a	-4.0	1.0	n/a
180.89824144699742	0.75	7	late	dm_task_post	n/a	n/a	n/a	n/a	n/a
185.5	0.5	7	late	em_task_pre	n/a	n/a	n/a	n/a	n/a
186.0	3.7692172489987996	7	late	em_task	n/a	n/a	n/a	n/a	48.9649019703968
189.7692172489988	0.75	7	late	em_task_post	n/a	n/a	n/a	n/a	n/a
196.0	1.5	8	early	stimulus	n/a	105.0	n/a	n/a	n/a
201.5	0.5	8	early	dm_task_pre	n/a	n/a	n/a	n/a	n/a
202.0	0.8739162210004	8	early	dm_task	0.8739162210004	n/a	4.0	1.0	n/a
202.8739162210004	0.75	8	early	dm_task_post	n/a	n/a	n/a	n/a	n/a
213.5	0.5	8	early	em_task_pre	n/a	n/a	n/a	n/a	n/a
214.0	2.5071435379977984	8	early	em_task	n/a	n/a	n/a	n/a	106.034091383351
216.5071435379978	0.75	8	early	em_task_post	n/a	n/a	n/a	n/a	n/a
224.0	1.5	9	late	stimulus	n/a	30.0	n/a	n/a	n/a
235.5	0.5	9	late	dm_task_pre	n/a	n/a	n/a	n/a	n/a
236.0	0.554208233999816	9	late	dm_task	0.554208233999816	n/a	-21.0	1.0	n/a
236.55420823399982	0.75	9	late	dm_task_post	n/a	n/a	n/a	n/a	n/a
241.5	0.5	9	late	em_task_pre	n/a	n/a	n/a	n/a	n/a
242.0	2.5373694839982015	9	late	em_task	n/a	n/a	n/a	n/a	37.5921875802184
244.5373694839982	0.75	9	late	em_task_post	n/a	n/a	n/a	n/a	n/a
252.0	1.5	10	early	stimulus	n/a	97.5	n/a	n/a	n/a
257.5	0.5	10	early	dm_task_pre	n/a	n/a	n/a	n/a	n/a
258.0	0.903498600997409	10	early	dm_task	0.903498600997409	n/a	0.0	-1.0	n/a
258.9034986009974	0.75	10	early	dm_task_post	n/a	n/a	n/a	n/a	n/a
269.5	0.5	10	early	em_task_pre	n/a	n/a	n/a	n/a	n/a
270.0	3.2143247349995008	10	early	em_task	n/a	n/a	n/a	n/a	93.4668517052966
273.2143247349995	0.75	10	early	em_task_post	n/a	n/a	n/a	n/a	n/a
280.0	1.5	11	late	stimulus	n/a	142.5	n/a	n/a	n/a
291.5	0.5	11	late	dm_task_pre	n/a	n/a	n/a	n/a	n/a
292.0	0.86119626999789	11	late	dm_task	0.86119626999789	n/a	-21.0	1.0	n/a
292.8611962699979	0.75	11	late	dm_task_post	n/a	n/a	n/a	n/a	n/a
297.5	0.5	11	late	em_task_pre	n/a	n/a	n/a	n/a	n/a
298.0	4.1252535239983	11	late	em_task	n/a	n/a	n/a	n/a	153.909048593906
302.1252535239983	0.75	11	late	em_task_post	n/a	n/a	n/a	n/a	n/a
308.0	1.5	12	late	stimulus	n/a	120.0	n/a	n/a	n/a
319.5	0.5	12	late	dm_task_pre	n/a	n/a	n/a	n/a	n/a
320.0	0.609577380997507	12	late	dm_task	0.609577380997507	n/a	-21.0	1.0	n/a
320.6095773809975	0.75	12	late	dm_task_post	n/a	n/a	n/a	n/a	n/a
325.5	0.5	12	late	em_task_pre	n/a	n/a	n/a	n/a	n/a
326.0	3.0825342259995985	12	late	em_task	n/a	n/a	n/a	n/a	126.180517162611
329.0825342259996	0.75	12	late	em_task_post	n/a	n/a	n/a	n/a	n/a
