onset	duration	trial	trial_type	event_type	response_time	value_stimulus	value_reference	response_decision	response_estimation
0.0	1.5	1	early	stimulus	n/a	120.0	n/a	n/a	n/a
5.5	0.5	1	early	dm_task_pre	n/a	n/a	n/a	n/a	n/a
6.0	0.572396345000016	1	early	dm_task	0.572396345000016	n/a	-4.0	-1.0	n/a
6.572396345000016	0.75	1	early	dm_task_post	n/a	n/a	n/a	n/a	n/a
17.5	0.5	1	early	em_task_pre	n/a	n/a	n/a	n/a	n/a
18.0	2.101703604013899	1	early	em_task	n/a	n/a	n/a	n/a	108.042108152813
20.1017036040139	0.75	1	early	em_task_post	n/a	n/a	n/a	n/a	n/a
28.0	1.5	2	early	stimulus	n/a	105.0	n/a	n/a	n/a
33.5	0.5	2	early	dm_task_pre	n/a	n/a	n/a	n/a	n/a
34.0	0.592970266996417	2	early	dm_task	0.592970266996417	n/a	-21.0	1.0	n/a
34.59297026699642	0.75	2	early	dm_task_post	n/a	n/a	n/a	n/a	n/a
45.5	0.5	2	early	em_task_pre	n/a	n/a	n/a	n/a	n/a
46.0	2.570738316018801	2	early	em_task	n/a	n/a	n/a	n/a	104.334626953217
48.570738316018804	0.75	2	early	em_task_post	n/a	n/a	n/a	n/a	n/a
56.0	1.5	3	late	stimulus	n/a	0.0	n/a	n/a	n/a
67.5	0.5	3	late	dm_task_pre	n/a	n/a	n/a	n/a	n/a
68.0	0.53550009400351	3	late	dm_task	0.53550009400351	n/a	4.0	-1.0	n/a
68.53550009400351	0.75	3	late	dm_task_post	n/a	n/a	n/a	n/a	n/a
73.5	0.5	3	late	em_task_pre	n/a	n/a	n/a	n/a	n/a
74.0	2.941565568005899	3	late	em_task	n/a	n/a	n/a	n/a	172.993993614507
76.9415655680059	0.75	3	late	em_task_post	n/a	n/a	n/a	n/a	n/a
84.0	1.5	4	late	stimulus	n/a	30.0	n/a	n/a	n/a
95.5	0.5	4	late	dm_task_pre	n/a	n/a	n/a	n/a	n/a
96.0	0.804022580006858	4	late	dm_task	0.804022580006858	n/a	-4.0	-1.0	n/a
96.80402258000686	0.75	4	late	dm_task_post	n/a	n/a	n/a	n/a	n/a
101.5	0.5	4	late	em_task_pre	n/a	n/a	n/a	n/a	n/a
102.0	1.6963759630162016	4	late	em_task	n/a	n/a	n/a	n/a	21.8716541581423
103.69637596301621	0.75	4	late	em_task_post	n/a	n/a	n/a	n/a	n/a
112.0	1.5	5	early	stimulus	n/a	172.5	n/a	n/a	n/a
117.5	0.5	5	early	dm_task_pre	n/a	n/a	n/a	n/a	n/a
118.0	0.738993634004146	5	early	dm_task	0.738993634004146	n/a	0.0	-1.0	n/a
118.73899363400415	0.75	5	early	dm_task_post	n/a	n/a	n/a	n/a	n/a
129.5	0.5	5	early	em_task_pre	n/a	n/a	n/a	n/a	n/a
130.0	3.0331373490043987	5	early	em_task	n/a	n/a	n/a	n/a	174.008028340743
133.0331373490044	0.75	5	early	em_task_post	n/a	n/a	n/a	n/a	n/a
140.0	1.5	6	late	stimulus	n/a	67.5	n/a	n/a	n/a
151.5	0.5	6	late	dm_task_pre	n/a	n/a	n/a	n/a	n/a
152.0	0.457909257005667	6	late	dm_task	0.457909257005667	n/a	21.0	-1.0	n/a
152.45790925700567	0.75	6	late	dm_task_post	n/a	n/a	n/a	n/a	n/a
157.5	0.5	6	late	em_task_pre	n/a	n/a	n/a	n/a	n/a
158.0	2.5878457000072004	6	late	em_task	n/a	n/a	n/a	n/a	56.5386246599575
160.5878457000072	0.75	6	late	em_task_post	n/a	n/a	n/a	n/a	n/a
168.0	1.5	7	early	stimulus	n/a	37.5	n/a	n/a	n/a
173.5	0.5	7	early	dm_task_pre	n/a	n/a	n/a	n/a	n/a
174.0	0.702154182014056	7	early	dm_task	0.702154182014056	n/a	4.0	1.0	n/a
174.70215418201406	0.75	7	early	dm_task_post	n/a	n/a	n/a	n/a	n/a
185.5	0.5	7	early	em_task_pre	n/a	n/a	n/a	n/a	n/a
186.0	1.7845323790098	7	early	em_task	n/a	n/a	n/a	n/a	38.4672182007909
187.7845323790098	0.75	7	early	em_task_post	n/a	n/a	n/a	n/a	n/a
196.0	1.5	8	early	stimulus	n/a	135.0	n/a	n/a	n/a
201.5	0.5	8	early	dm_task_pre	n/a	n/a	n/a	n/a	n/a
202.0	0.806377172004431	8	early	dm_task	0.806377172004431	n/a	-4.0	-1.0	n/a
202.80637717200443	0.75	8	early	dm_task_post	n/a	n/a	n/a	n/a	n/a
213.5	0.5	8	early	em_task_pre	n/a	n/a	n/a	n/a	n/a
214.0	2.1798602880152984	8	early	em_task	n/a	n/a	n/a	n/a	133.234400323313
216.1798602880153	0.75	8	early	em_task_post	n/a	n/a	n/a	n/a	n/a
224.0	1.5	9	early	stimulus	n/a	90.0	n/a	n/a	n/a
229.5	0.5	9	early	dm_task_pre	n/a	n/a	n/a	n/a	n/a
230.0	0.406319808011176	9	early	dm_task	0.406319808011176	n/a	21.0	-1.0	n/a
230.40631980801118	0.75	9	early	dm_task_post	n/a	n/a	n/a	n/a	n/a
241.5	0.5	9	early	em_task_pre	n/a	n/a	n/a	n/a	n/a
242.0	2.3005586770014013	9	early	em_task	n/a	n/a	n/a	n/a	91.6421347746756
244.3005586770014	0.75	9	early	em_task_post	n/a	n/a	n/a	n/a	n/a
252.0	1.5	10	early	stimulus	n/a	15.0	n/a	n/a	n/a
257.5	0.5	10	early	dm_task_pre	n/a	n/a	n/a	n/a	n/a
258.0	0.52690249501029	10	early	dm_task	0.52690249501029	n/a	4.0	-1.0	n/a
258.5269024950103	0.75	10	early	dm_task_post	n/a	n/a	n/a	n/a	n/a
269.5	0.5	10	early	em_task_pre	n/a	n/a	n/a	n/a	n/a
270.0	2.221728931006499	10	early	em_task	n/a	n/a	n/a	n/a	9.99836700528633
272.2217289310065	0.75	10	early	em_task_post	n/a	n/a	n/a	n/a	n/a
280.0	1.5	11	late	stimulus	n/a	97.5	n/a	n/a	n/a
291.5	0.5	11	late	dm_task_pre	n/a	n/a	n/a	n/a	n/a
292.0	0.502654042997165	11	late	dm_task	0.502654042997165	n/a	-21.0	1.0	n/a
292.50265404299716	0.75	11	late	dm_task_post	n/a	n/a	n/a	n/a	n/a
297.5	0.5	11	late	em_task_pre	n/a	n/a	n/a	n/a	n/a
298.0	3.9583157940069	11	late	em_task	n/a	n/a	n/a	n/a	96.1665463665014
301.9583157940069	0.75	11	late	em_task_post	n/a	n/a	n/a	n/a	n/a
308.0	1.5	12	late	stimulus	n/a	150.0	n/a	n/a	n/a
319.5	0.5	12	late	dm_task_pre	n/a	n/a	n/a	n/a	n/a
320.0	0.669679637008812	12	late	dm_task	0.669679637008812	n/a	-21.0	1.0	n/a
320.6696796370088	0.75	12	late	dm_task_post	n/a	n/a	n/a	n/a	n/a
325.5	0.5	12	late	em_task_pre	n/a	n/a	n/a	n/a	n/a
326.0	1.5689893680101008	12	late	em_task	n/a	n/a	n/a	n/a	151.898139978249
327.5689893680101	0.75	12	late	em_task_post	n/a	n/a	n/a	n/a	n/a
