onset	duration	trial	trial_type	event_type	response_time	value_stimulus	value_reference	response_decision	response_estimation
0.0	1.5	1	early	stimulus	n/a	127.5	n/a	n/a	n/a
5.5	0.5	1	early	dm_task_pre	n/a	n/a	n/a	n/a	n/a
6.0	0.936322744935751	1	early	dm_task	0.936322744935751	n/a	-4.0	1.0	n/a
6.936322744935751	0.75	1	early	dm_task_post	n/a	n/a	n/a	n/a	n/a
17.5	0.5	1	early	em_task_pre	n/a	n/a	n/a	n/a	n/a
18.0	1.7486965057906012	1	early	em_task	n/a	n/a	n/a	n/a	140.385858152813
19.7486965057906	0.75	1	early	em_task_post	n/a	n/a	n/a	n/a	n/a
28.0	1.5	2	early	stimulus	n/a	15.0	n/a	n/a	n/a
33.5	0.5	2	early	dm_task_pre	n/a	n/a	n/a	n/a	n/a
34.0	0.907554449979216	2	early	dm_task	0.907554449979216	n/a	-4.0	-1.0	n/a
34.907554449979216	0.75	2	early	dm_task_post	n/a	n/a	n/a	n/a	n/a
45.5	0.5	2	early	em_task_pre	n/a	n/a	n/a	n/a	n/a
46.0	2.3705366149078984	2	early	em_task	n/a	n/a	n/a	n/a	18.553376953217
48.3705366149079	0.75	2	early	em_task_post	n/a	n/a	n/a	n/a	n/a
56.0	1.5	3	early	stimulus	n/a	172.5	n/a	n/a	n/a
61.5	0.5	3	early	dm_task_pre	n/a	n/a	n/a	n/a	n/a
62.0	1.04890735587105	3	early	dm_task	1.04890735587105	n/a	-4.0	-1.0	n/a
63.04890735587105	0.75	3	early	dm_task_post	n/a	n/a	n/a	n/a	n/a
73.5	0.5	3	early	em_task_pre	n/a	n/a	n/a	n/a	n/a
74.0	3.195402169832999	3	early	em_task	n/a	n/a	n/a	n/a	168.775243614507
77.195402169833	0.75	3	early	em_task_post	n/a	n/a	n/a	n/a	n/a
84.0	1.5	4	early	stimulus	n/a	75.0	n/a	n/a	n/a
89.5	0.5	4	early	dm_task_pre	n/a	n/a	n/a	n/a	n/a
90.0	0.540046406909823	4	early	dm_task	0.540046406909823	n/a	-21.0	1.0	n/a
90.54004640690982	0.75	4	early	dm_task_post	n/a	n/a	n/a	n/a	n/a
101.5	0.5	4	early	em_task_pre	n/a	n/a	n/a	n/a	n/a
102.0	2.8357049569022017	4	early	em_task	n/a	n/a	n/a	n/a	76.7154041581423
104.8357049569022	0.75	4	early	em_task_post	n/a	n/a	n/a	n/a	n/a
112.0	1.5	5	late	stimulus	n/a	0.0	n/a	n/a	n/a
123.5	0.5	5	late	dm_task_pre	n/a	n/a	n/a	n/a	n/a
124.0	0.52641802188009	5	late	dm_task	0.52641802188009	n/a	4.0	-1.0	n/a
124.52641802188009	0.75	5	late	dm_task_post	n/a	n/a	n/a	n/a	n/a
129.5	0.5	5	late	em_task_pre	n/a	n/a	n/a	n/a	n/a
130.0	3.3899326138197985	5	late	em_task	n/a	n/a	n/a	n/a	166.976778340743
133.3899326138198	0.75	5	late	em_task_post	n/a	n/a	n/a	n/a	n/a
140.0	1.5	6	late	stimulus	n/a	30.0	n/a	n/a	n/a
151.5	0.5	6	late	dm_task_pre	n/a	n/a	n/a	n/a	n/a
152.0	0.548548632999882	6	late	dm_task	0.548548632999882	n/a	21.0	-1.0	n/a
152.54854863299988	0.75	6	late	dm_task_post	n/a	n/a	n/a	n/a	n/a
157.5	0.5	6	late	em_task_pre	n/a	n/a	n/a	n/a	n/a
158.0	3.5460330587812017	6	late	em_task	n/a	n/a	n/a	n/a	17.1636246599575
161.5460330587812	0.75	6	late	em_task_post	n/a	n/a	n/a	n/a	n/a
168.0	1.5	7	early	stimulus	n/a	97.5	n/a	n/a	n/a
173.5	0.5	7	early	dm_task_pre	n/a	n/a	n/a	n/a	n/a
174.0	0.724347464973107	7	early	dm_task	0.724347464973107	n/a	0.0	1.0	n/a
174.7243474649731	0.75	7	early	dm_task_post	n/a	n/a	n/a	n/a	n/a
185.5	0.5	7	early	em_task_pre	n/a	n/a	n/a	n/a	n/a
186.0	4.2859146168921	7	early	em_task	n/a	n/a	n/a	n/a	105.264093200791
190.28591461689211	0.75	7	early	em_task_post	n/a	n/a	n/a	n/a	n/a
196.0	1.5	8	early	stimulus	n/a	90.0	n/a	n/a	n/a
201.5	0.5	8	early	dm_task_pre	n/a	n/a	n/a	n/a	n/a
202.0	0.548775453818962	8	early	dm_task	0.548775453818962	n/a	-21.0	1.0	n/a
202.54877545381896	0.75	8	early	dm_task_post	n/a	n/a	n/a	n/a	n/a
213.5	0.5	8	early	em_task_pre	n/a	n/a	n/a	n/a	n/a
214.0	3.1429740379099016	8	early	em_task	n/a	n/a	n/a	n/a	89.640650323313
217.1429740379099	0.75	8	early	em_task_post	n/a	n/a	n/a	n/a	n/a
224.0	1.5	9	late	stimulus	n/a	157.5	n/a	n/a	n/a
235.5	0.5	9	late	dm_task_pre	n/a	n/a	n/a	n/a	n/a
236.0	0.703862065915018	9	late	dm_task	0.703862065915018	n/a	0.0	-1.0	n/a
236.70386206591502	0.75	9	late	dm_task_post	n/a	n/a	n/a	n/a	n/a
241.5	0.5	9	late	em_task_pre	n/a	n/a	n/a	n/a	n/a
242.0	3.5495978309773015	9	late	em_task	n/a	n/a	n/a	n/a	159.845259774676
245.5495978309773	0.75	9	late	em_task_post	n/a	n/a	n/a	n/a	n/a
252.0	1.5	10	late	stimulus	n/a	67.5	n/a	n/a	n/a
263.5	0.5	10	late	dm_task_pre	n/a	n/a	n/a	n/a	n/a
264.0	0.643000533804297	10	late	dm_task	0.643000533804297	n/a	21.0	-1.0	n/a
264.6430005338043	0.75	10	late	dm_task_post	n/a	n/a	n/a	n/a	n/a
269.5	0.5	10	late	em_task_pre	n/a	n/a	n/a	n/a	n/a
270.0	2.1555996409151987	10	late	em_task	n/a	n/a	n/a	n/a	59.2171170052863
272.15559964091517	0.75	10	late	em_task_post	n/a	n/a	n/a	n/a	n/a
280.0	1.5	11	early	stimulus	n/a	60.0	n/a	n/a	n/a
285.5	0.5	11	early	dm_task_pre	n/a	n/a	n/a	n/a	n/a
286.0	0.633703994797543	11	early	dm_task	0.633703994797543	n/a	-21.0	1.0	n/a
286.63370399479754	0.75	11	early	dm_task_post	n/a	n/a	n/a	n/a	n/a
297.5	0.5	11	early	em_task_pre	n/a	n/a	n/a	n/a	n/a
298.0	2.795184850925601	11	early	em_task	n/a	n/a	n/a	n/a	54.6821713665014
300.7951848509256	0.75	11	early	em_task_post	n/a	n/a	n/a	n/a	n/a
308.0	1.5	12	late	stimulus	n/a	105.0	n/a	n/a	n/a
319.5	0.5	12	late	dm_task_pre	n/a	n/a	n/a	n/a	n/a
320.0	0.722056491998956	12	late	dm_task	0.722056491998956	n/a	0.0	1.0	n/a
320.72205649199896	0.75	12	late	dm_task_post	n/a	n/a	n/a	n/a	n/a
325.5	0.5	12	late	em_task_pre	n/a	n/a	n/a	n/a	n/a
326.0	1.737863297807099	12	late	em_task	n/a	n/a	n/a	n/a	116.741889978249
327.7378632978071	0.75	12	late	em_task_post	n/a	n/a	n/a	n/a	n/a
