onset	duration	trial	trial_type	event_type	response_time	value_stimulus	value_reference	response_decision	response_estimation
0.0	1.5	1	late	stimulus	n/a	157.5	n/a	n/a	n/a
11.5	0.5	1	late	dm_task_pre	n/a	n/a	n/a	n/a	n/a
12.0	0.588949160999618	1	late	dm_task	0.588949160999618	n/a	21.0	-1.0	n/a
12.588949160999618	0.75	1	late	dm_task_post	n/a	n/a	n/a	n/a	n/a
17.5	0.5	1	late	em_task_pre	n/a	n/a	n/a	n/a	n/a
18.0	3.324761758034601	1	late	em_task	n/a	n/a	n/a	n/a	164.507232523815
21.3247617580346	0.75	1	late	em_task_post	n/a	n/a	n/a	n/a	n/a
28.0	1.5	2	early	stimulus	n/a	97.5	n/a	n/a	n/a
33.5	0.5	2	early	dm_task_pre	n/a	n/a	n/a	n/a	n/a
34.0	1.04499976203078	2	early	dm_task	1.04499976203078	n/a	4.0	1.0	n/a
35.044999762030784	0.75	2	early	dm_task_post	n/a	n/a	n/a	n/a	n/a
45.5	0.5	2	early	em_task_pre	n/a	n/a	n/a	n/a	n/a
46.0	1.3145538280368996	2	early	em_task	n/a	n/a	n/a	n/a	101.87900794292
47.3145538280369	0.75	2	early	em_task_post	n/a	n/a	n/a	n/a	n/a
56.0	1.5	3	early	stimulus	n/a	165.0	n/a	n/a	n/a
61.5	0.5	3	early	dm_task_pre	n/a	n/a	n/a	n/a	n/a
62.0	0.551436113019008	3	early	dm_task	0.551436113019008	n/a	21.0	-1.0	n/a
62.55143611301901	0.75	3	early	dm_task_post	n/a	n/a	n/a	n/a	n/a
73.5	0.5	3	early	em_task_pre	n/a	n/a	n/a	n/a	n/a
74.0	2.921718523022701	3	early	em_task	n/a	n/a	n/a	n/a	167.831403119454
76.9217185230227	0.75	3	early	em_task_post	n/a	n/a	n/a	n/a	n/a
84.0	1.5	4	late	stimulus	n/a	7.5	n/a	n/a	n/a
95.5	0.5	4	late	dm_task_pre	n/a	n/a	n/a	n/a	n/a
96.0	0.679911076033022	4	late	dm_task	0.679911076033022	n/a	0.0	1.0	n/a
96.67991107603302	0.75	4	late	dm_task_post	n/a	n/a	n/a	n/a	n/a
101.5	0.5	4	late	em_task_pre	n/a	n/a	n/a	n/a	n/a
102.0	3.151976110995701	4	late	em_task	n/a	n/a	n/a	n/a	16.450854267326
105.1519761109957	0.75	4	late	em_task_post	n/a	n/a	n/a	n/a	n/a
112.0	1.5	5	late	stimulus	n/a	75.0	n/a	n/a	n/a
123.5	0.5	5	late	dm_task_pre	n/a	n/a	n/a	n/a	n/a
124.0	0.560532041999977	5	late	dm_task	0.560532041999977	n/a	-21.0	1.0	n/a
124.56053204199998	0.75	5	late	dm_task_post	n/a	n/a	n/a	n/a	n/a
129.5	0.5	5	late	em_task_pre	n/a	n/a	n/a	n/a	n/a
130.0	2.5263593900017014	5	late	em_task	n/a	n/a	n/a	n/a	59.5981234849968
132.5263593900017	0.75	5	late	em_task_post	n/a	n/a	n/a	n/a	n/a
140.0	1.5	6	late	stimulus	n/a	90.0	n/a	n/a	n/a
151.5	0.5	6	late	dm_task_pre	n/a	n/a	n/a	n/a	n/a
152.0	0.610170739004388	6	late	dm_task	0.610170739004388	n/a	21.0	-1.0	n/a
152.6101707390044	0.75	6	late	dm_task_post	n/a	n/a	n/a	n/a	n/a
157.5	0.5	6	late	em_task_pre	n/a	n/a	n/a	n/a	n/a
158.0	3.494919733027899	6	late	em_task	n/a	n/a	n/a	n/a	93.5429265660939
161.4949197330279	0.75	6	late	em_task_post	n/a	n/a	n/a	n/a	n/a
168.0	1.5	7	early	stimulus	n/a	120.0	n/a	n/a	n/a
173.5	0.5	7	early	dm_task_pre	n/a	n/a	n/a	n/a	n/a
174.0	0.481496046006214	7	early	dm_task	0.481496046006214	n/a	-21.0	1.0	n/a
174.4814960460062	0.75	7	early	dm_task_post	n/a	n/a	n/a	n/a	n/a
185.5	0.5	7	early	em_task_pre	n/a	n/a	n/a	n/a	n/a
186.0	3.4327684559976	7	early	em_task	n/a	n/a	n/a	n/a	116.468086195636
189.4327684559976	0.75	7	early	em_task_post	n/a	n/a	n/a	n/a	n/a
196.0	1.5	8	early	stimulus	n/a	37.5	n/a	n/a	n/a
201.5	0.5	8	early	dm_task_pre	n/a	n/a	n/a	n/a	n/a
202.0	1.06878286303254	8	early	dm_task	1.06878286303254	n/a	-4.0	-1.0	n/a
203.06878286303254	0.75	8	early	dm_task_post	n/a	n/a	n/a	n/a	n/a
213.5	0.5	8	early	em_task_pre	n/a	n/a	n/a	n/a	n/a
214.0	2.405825543042699	8	early	em_task	n/a	n/a	n/a	n/a	27.4800618324857
216.4058255430427	0.75	8	early	em_task_post	n/a	n/a	n/a	n/a	n/a
224.0	1.5	9	early	stimulus	n/a	30.0	n/a	n/a	n/a
229.5	0.5	9	early	dm_task_pre	n/a	n/a	n/a	n/a	n/a
230.0	0.97576719900826	9	early	dm_task	0.97576719900826	n/a	0.0	-1.0	n/a
230.97576719900826	0.75	9	early	dm_task_post	n/a	n/a	n/a	n/a	n/a
241.5	0.5	9	early	em_task_pre	n/a	n/a	n/a	n/a	n/a
242.0	4.1964017290156015	9	early	em_task	n/a	n/a	n/a	n/a	18.1906900882366
246.1964017290156	0.75	9	early	em_task_post	n/a	n/a	n/a	n/a	n/a
252.0	1.5	10	early	stimulus	n/a	112.5	n/a	n/a	n/a
257.5	0.5	10	early	dm_task_pre	n/a	n/a	n/a	n/a	n/a
258.0	0.862702756014187	10	early	dm_task	0.862702756014187	n/a	0.0	1.0	n/a
258.8627027560142	0.75	10	early	dm_task_post	n/a	n/a	n/a	n/a	n/a
269.5	0.5	10	early	em_task_pre	n/a	n/a	n/a	n/a	n/a
270.0	2.9862195310415984	10	early	em_task	n/a	n/a	n/a	n/a	113.9649202278
272.98621953104157	0.75	10	early	em_task_post	n/a	n/a	n/a	n/a	n/a
280.0	1.5	11	early	stimulus	n/a	22.5	n/a	n/a	n/a
285.5	0.5	11	early	dm_task_pre	n/a	n/a	n/a	n/a	n/a
286.0	0.555832898011431	11	early	dm_task	0.555832898011431	n/a	-21.0	1.0	n/a
286.55583289801143	0.75	11	early	dm_task_post	n/a	n/a	n/a	n/a	n/a
297.5	0.5	11	early	em_task_pre	n/a	n/a	n/a	n/a	n/a
298.0	3.9264887149910983	11	early	em_task	n/a	n/a	n/a	n/a	14.7549405833813
301.9264887149911	0.75	11	early	em_task_post	n/a	n/a	n/a	n/a	n/a
308.0	1.5	12	early	stimulus	n/a	150.0	n/a	n/a	n/a
313.5	0.5	12	early	dm_task_pre	n/a	n/a	n/a	n/a	n/a
314.0	0.796296854037791	12	early	dm_task	0.796296854037791	n/a	0.0	1.0	n/a
314.7962968540378	0.75	12	early	dm_task_post	n/a	n/a	n/a	n/a	n/a
325.5	0.5	12	early	em_task_pre	n/a	n/a	n/a	n/a	n/a
326.0	1.9498896960284995	12	early	em_task	n/a	n/a	n/a	n/a	159.96405572232
327.9498896960285	0.75	12	early	em_task_post	n/a	n/a	n/a	n/a	n/a
