onset	duration	trial	trial_type	event_type	response_time	value_stimulus	value_reference	response_decision	response_estimation
0.0	1.5	1	late	stimulus	n/a	90.0	n/a	n/a	n/a
11.5	0.5	1	late	dm_task_pre	n/a	n/a	n/a	n/a	n/a
12.0	0.585735390006448	1	late	dm_task	0.585735390006448	n/a	-21.0	1.0	n/a
12.585735390006448	0.75	1	late	dm_task_post	n/a	n/a	n/a	n/a	n/a
17.5	0.5	1	late	em_task_pre	n/a	n/a	n/a	n/a	n/a
18.0	2.0858947860105985	1	late	em_task	n/a	n/a	n/a	n/a	94.1278198431551
20.0858947860106	0.75	1	late	em_task_post	n/a	n/a	n/a	n/a	n/a
28.0	1.5	2	early	stimulus	n/a	30.0	n/a	n/a	n/a
33.5	0.5	2	early	dm_task_pre	n/a	n/a	n/a	n/a	n/a
34.0	0.98982529299974	2	early	dm_task	0.98982529299974	n/a	0.0	-1.0	n/a
34.98982529299974	0.75	2	early	dm_task_post	n/a	n/a	n/a	n/a	n/a
45.5	0.5	2	early	em_task_pre	n/a	n/a	n/a	n/a	n/a
46.0	3.2117602210054983	2	early	em_task	n/a	n/a	n/a	n/a	28.338309741612
49.2117602210055	0.75	2	early	em_task_post	n/a	n/a	n/a	n/a	n/a
56.0	1.5	3	late	stimulus	n/a	75.0	n/a	n/a	n/a
67.5	0.5	3	late	dm_task_pre	n/a	n/a	n/a	n/a	n/a
68.0	0.534431204010616	3	late	dm_task	0.534431204010616	n/a	21.0	-1.0	n/a
68.53443120401062	0.75	3	late	dm_task_post	n/a	n/a	n/a	n/a	n/a
73.5	0.5	3	late	em_task_pre	n/a	n/a	n/a	n/a	n/a
74.0	2.6708893090108	3	late	em_task	n/a	n/a	n/a	n/a	61.6057442755464
76.6708893090108	0.75	3	late	em_task_post	n/a	n/a	n/a	n/a	n/a
84.0	1.5	4	early	stimulus	n/a	22.5	n/a	n/a	n/a
89.5	0.5	4	early	dm_task_pre	n/a	n/a	n/a	n/a	n/a
90.0	0.642706694008666	4	early	dm_task	0.642706694008666	n/a	-21.0	1.0	n/a
90.64270669400867	0.75	4	early	dm_task_post	n/a	n/a	n/a	n/a	n/a
101.5	0.5	4	early	em_task_pre	n/a	n/a	n/a	n/a	n/a
102.0	2.8467425980052	4	early	em_task	n/a	n/a	n/a	n/a	28.2618129598189
104.84674259800519	0.75	4	early	em_task_post	n/a	n/a	n/a	n/a	n/a
112.0	1.5	5	early	stimulus	n/a	0.0	n/a	n/a	n/a
117.5	0.5	5	early	dm_task_pre	n/a	n/a	n/a	n/a	n/a
118.0	0.635653807010385	5	early	dm_task	0.635653807010385	n/a	-21.0	1.0	n/a
118.63565380701039	0.75	5	early	dm_task_post	n/a	n/a	n/a	n/a	n/a
129.5	0.5	5	early	em_task_pre	n/a	n/a	n/a	n/a	n/a
130.0	2.4898113920061995	5	early	em_task	n/a	n/a	n/a	n/a	166.522804398625
132.4898113920062	0.75	5	early	em_task_post	n/a	n/a	n/a	n/a	n/a
140.0	1.5	6	early	stimulus	n/a	157.5	n/a	n/a	n/a
145.5	0.5	6	early	dm_task_pre	n/a	n/a	n/a	n/a	n/a
146.0	0.610940063008456	6	early	dm_task	0.610940063008456	n/a	-21.0	1.0	n/a
146.61094006300846	0.75	6	early	dm_task_post	n/a	n/a	n/a	n/a	n/a
157.5	0.5	6	early	em_task_pre	n/a	n/a	n/a	n/a	n/a
158.0	2.8980347990000013	6	early	em_task	n/a	n/a	n/a	n/a	146.586664751727
160.89803479900002	0.75	6	early	em_task_post	n/a	n/a	n/a	n/a	n/a
168.0	1.5	7	late	stimulus	n/a	120.0	n/a	n/a	n/a
179.5	0.5	7	late	dm_task_pre	n/a	n/a	n/a	n/a	n/a
180.0	0.672135007000179	7	late	dm_task	0.672135007000179	n/a	0.0	-1.0	n/a
180.67213500700018	0.75	7	late	dm_task_post	n/a	n/a	n/a	n/a	n/a
185.5	0.5	7	late	em_task_pre	n/a	n/a	n/a	n/a	n/a
186.0	3.544026650008199	7	late	em_task	n/a	n/a	n/a	n/a	125.632743264752
189.5440266500082	0.75	7	late	em_task_post	n/a	n/a	n/a	n/a	n/a
196.0	1.5	8	late	stimulus	n/a	150.0	n/a	n/a	n/a
207.5	0.5	8	late	dm_task_pre	n/a	n/a	n/a	n/a	n/a
208.0	0.59791472600773	8	late	dm_task	0.59791472600773	n/a	21.0	-1.0	n/a
208.59791472600773	0.75	8	late	dm_task_post	n/a	n/a	n/a	n/a	n/a
213.5	0.5	8	late	em_task_pre	n/a	n/a	n/a	n/a	n/a
214.0	3.0183181350002997	8	late	em_task	n/a	n/a	n/a	n/a	159.624799047547
217.0183181350003	0.75	8	late	em_task_post	n/a	n/a	n/a	n/a	n/a
224.0	1.5	9	late	stimulus	n/a	172.5	n/a	n/a	n/a
235.5	0.5	9	late	dm_task_pre	n/a	n/a	n/a	n/a	n/a
236.0	0.540058757003862	9	late	dm_task	0.540058757003862	n/a	-4.0	-1.0	n/a
236.54005875700386	0.75	9	late	dm_task_post	n/a	n/a	n/a	n/a	n/a
241.5	0.5	9	late	em_task_pre	n/a	n/a	n/a	n/a	n/a
242.0	2.8766286110040014	9	late	em_task	n/a	n/a	n/a	n/a	155.879582033755
244.876628611004	0.75	9	late	em_task_post	n/a	n/a	n/a	n/a	n/a
252.0	1.5	10	late	stimulus	n/a	142.5	n/a	n/a	n/a
263.5	0.5	10	late	dm_task_pre	n/a	n/a	n/a	n/a	n/a
264.0	0.74734550100402	10	late	dm_task	0.74734550100402	n/a	-21.0	1.0	n/a
264.747345501004	0.75	10	late	dm_task_post	n/a	n/a	n/a	n/a	n/a
269.5	0.5	10	late	em_task_pre	n/a	n/a	n/a	n/a	n/a
270.0	2.8181661480047993	10	late	em_task	n/a	n/a	n/a	n/a	140.349480518103
272.8181661480048	0.75	10	late	em_task_post	n/a	n/a	n/a	n/a	n/a
280.0	1.5	11	late	stimulus	n/a	97.5	n/a	n/a	n/a
291.5	0.5	11	late	dm_task_pre	n/a	n/a	n/a	n/a	n/a
292.0	0.675693921002676	11	late	dm_task	0.675693921002676	n/a	4.0	1.0	n/a
292.6756939210027	0.75	11	late	dm_task_post	n/a	n/a	n/a	n/a	n/a
297.5	0.5	11	late	em_task_pre	n/a	n/a	n/a	n/a	n/a
298.0	2.275917606006299	11	late	em_task	n/a	n/a	n/a	n/a	109.049170615429
300.2759176060063	0.75	11	late	em_task_post	n/a	n/a	n/a	n/a	n/a
308.0	1.5	12	late	stimulus	n/a	127.5	n/a	n/a	n/a
319.5	0.5	12	late	dm_task_pre	n/a	n/a	n/a	n/a	n/a
320.0	1.36767878899991	12	late	dm_task	1.36767878899991	n/a	4.0	-1.0	n/a
321.3676787889999	0.75	12	late	dm_task_post	n/a	n/a	n/a	n/a	n/a
325.5	0.5	12	late	em_task_pre	n/a	n/a	n/a	n/a	n/a
326.0	3.2852296880009995	12	late	em_task	n/a	n/a	n/a	n/a	139.126293404737
329.285229688001	0.75	12	late	em_task_post	n/a	n/a	n/a	n/a	n/a
