onset	duration	trial	trial_type	event_type	response_time	value_stimulus	value_reference	response_decision	response_estimation
0.0	1.5	1	early	stimulus	n/a	127.5	n/a	n/a	n/a
5.5	0.5	1	early	dm_task_pre	n/a	n/a	n/a	n/a	n/a
6.0	0.824820859997999	1	early	dm_task	0.824820859997999	n/a	0.0	1.0	n/a
6.824820859997999	0.75	1	early	dm_task_post	n/a	n/a	n/a	n/a	n/a
17.5	0.5	1	early	em_task_pre	n/a	n/a	n/a	n/a	n/a
18.0	1.7713291100007993	1	early	em_task	n/a	n/a	n/a	n/a	139.682733152813
19.7713291100008	0.75	1	early	em_task_post	n/a	n/a	n/a	n/a	n/a
28.0	1.5	2	early	stimulus	n/a	135.0	n/a	n/a	n/a
33.5	0.5	2	early	dm_task_pre	n/a	n/a	n/a	n/a	n/a
34.0	1.16435159200046	2	early	dm_task	1.16435159200046	n/a	4.0	1.0	n/a
35.16435159200046	0.75	2	early	dm_task_post	n/a	n/a	n/a	n/a	n/a
45.5	0.5	2	early	em_task_pre	n/a	n/a	n/a	n/a	n/a
46.0	3.6448328999976987	2	early	em_task	n/a	n/a	n/a	n/a	148.631501953217
49.644832899997695	0.75	2	early	em_task_post	n/a	n/a	n/a	n/a	n/a
56.0	1.5	3	late	stimulus	n/a	165.0	n/a	n/a	n/a
67.5	0.5	3	late	dm_task_pre	n/a	n/a	n/a	n/a	n/a
68.0	1.16945658300392	3	late	dm_task	1.16945658300392	n/a	21.0	-1.0	n/a
69.16945658300392	0.75	3	late	dm_task_post	n/a	n/a	n/a	n/a	n/a
73.5	0.5	3	late	em_task_pre	n/a	n/a	n/a	n/a	n/a
74.0	2.9666502629989004	3	late	em_task	n/a	n/a	n/a	n/a	0.0252436145072465
76.9666502629989	0.75	3	late	em_task_post	n/a	n/a	n/a	n/a	n/a
84.0	1.5	4	late	stimulus	n/a	60.0	n/a	n/a	n/a
95.5	0.5	4	late	dm_task_pre	n/a	n/a	n/a	n/a	n/a
96.0	1.15935717800312	4	late	dm_task	1.15935717800312	n/a	0.0	-1.0	n/a
97.15935717800312	0.75	4	late	dm_task_post	n/a	n/a	n/a	n/a	n/a
101.5	0.5	4	late	em_task_pre	n/a	n/a	n/a	n/a	n/a
102.0	1.9403290740010988	4	late	em_task	n/a	n/a	n/a	n/a	58.4341541581423
103.9403290740011	0.75	4	late	em_task_post	n/a	n/a	n/a	n/a	n/a
112.0	1.5	5	early	stimulus	n/a	15.0	n/a	n/a	n/a
117.5	0.5	5	early	dm_task_pre	n/a	n/a	n/a	n/a	n/a
118.0	1.20144861900189	5	early	dm_task	1.20144861900189	n/a	-21.0	-1.0	n/a
119.2014486190019	0.75	5	early	dm_task_post	n/a	n/a	n/a	n/a	n/a
129.5	0.5	5	early	em_task_pre	n/a	n/a	n/a	n/a	n/a
130.0	3.3142589050039994	5	early	em_task	n/a	n/a	n/a	n/a	14.3986533407432
133.314258905004	0.75	5	early	em_task_post	n/a	n/a	n/a	n/a	n/a
140.0	1.5	6	late	stimulus	n/a	97.5	n/a	n/a	n/a
151.5	0.5	6	late	dm_task_pre	n/a	n/a	n/a	n/a	n/a
152.0	1.5	6	late	dm_task	1.50507886600099	n/a	0.0	1.0	n/a
153.5	0.75	6	late	dm_task_post	n/a	n/a	n/a	n/a	n/a
157.5	0.5	6	late	em_task_pre	n/a	n/a	n/a	n/a	n/a
158.0	1.3032529249977003	6	late	em_task	n/a	n/a	n/a	n/a	108.569874659958
159.3032529249977	0.75	6	late	em_task_post	n/a	n/a	n/a	n/a	n/a
168.0	1.5	7	late	stimulus	n/a	45.0	n/a	n/a	n/a
179.5	0.5	7	late	dm_task_pre	n/a	n/a	n/a	n/a	n/a
180.0	0.962332185998093	7	late	dm_task	0.962332185998093	n/a	4.0	-1.0	n/a
180.9623321859981	0.75	7	late	dm_task_post	n/a	n/a	n/a	n/a	n/a
185.5	0.5	7	late	em_task_pre	n/a	n/a	n/a	n/a	n/a
186.0	2.1760705240013003	7	late	em_task	n/a	n/a	n/a	n/a	25.8109682007909
188.1760705240013	0.75	7	late	em_task_post	n/a	n/a	n/a	n/a	n/a
196.0	1.5	8	late	stimulus	n/a	120.0	n/a	n/a	n/a
207.5	0.5	8	late	dm_task_pre	n/a	n/a	n/a	n/a	n/a
208.0	1.00245128700044	8	late	dm_task	1.00245128700044	n/a	0.0	-1.0	n/a
209.00245128700044	0.75	8	late	dm_task_post	n/a	n/a	n/a	n/a	n/a
213.5	0.5	8	late	em_task_pre	n/a	n/a	n/a	n/a	n/a
214.0	1.7992822800006003	8	late	em_task	n/a	n/a	n/a	n/a	123.390650323313
215.7992822800006	0.75	8	late	em_task_post	n/a	n/a	n/a	n/a	n/a
224.0	1.5	9	early	stimulus	n/a	75.0	n/a	n/a	n/a
229.5	0.5	9	early	dm_task_pre	n/a	n/a	n/a	n/a	n/a
230.0	0.944358084001578	9	early	dm_task	0.944358084001578	n/a	0.0	1.0	n/a
230.94435808400158	0.75	9	early	dm_task_post	n/a	n/a	n/a	n/a	n/a
241.5	0.5	9	early	em_task_pre	n/a	n/a	n/a	n/a	n/a
242.0	1.7562558310019014	9	early	em_task	n/a	n/a	n/a	n/a	71.9546347746756
243.7562558310019	0.75	9	early	em_task_post	n/a	n/a	n/a	n/a	n/a
252.0	1.5	10	early	stimulus	n/a	67.5	n/a	n/a	n/a
257.5	0.5	10	early	dm_task_pre	n/a	n/a	n/a	n/a	n/a
258.0	1.11758146400098	10	early	dm_task	1.11758146400098	n/a	21.0	-1.0	n/a
259.117581464001	0.75	10	early	dm_task_post	n/a	n/a	n/a	n/a	n/a
269.5	0.5	10	early	em_task_pre	n/a	n/a	n/a	n/a	n/a
270.0	1.563479103999299	10	early	em_task	n/a	n/a	n/a	n/a	78.2014920052863
271.56347910399927	0.75	10	early	em_task_post	n/a	n/a	n/a	n/a	n/a
280.0	1.5	11	early	stimulus	n/a	172.5	n/a	n/a	n/a
285.5	0.5	11	early	dm_task_pre	n/a	n/a	n/a	n/a	n/a
286.0	1.12366789799853	11	early	dm_task	1.12366789799853	n/a	-21.0	1.0	n/a
287.12366789799853	0.75	11	early	dm_task_post	n/a	n/a	n/a	n/a	n/a
297.5	0.5	11	early	em_task_pre	n/a	n/a	n/a	n/a	n/a
298.0	2.2853534550012995	11	early	em_task	n/a	n/a	n/a	n/a	166.479046366501
300.2853534550013	0.75	11	early	em_task_post	n/a	n/a	n/a	n/a	n/a
308.0	1.5	12	early	stimulus	n/a	0.0	n/a	n/a	n/a
313.5	0.5	12	early	dm_task_pre	n/a	n/a	n/a	n/a	n/a
314.0	0.846456487997784	12	early	dm_task	0.846456487997784	n/a	-4.0	1.0	n/a
314.8464564879978	0.75	12	early	dm_task_post	n/a	n/a	n/a	n/a	n/a
325.5	0.5	12	early	em_task_pre	n/a	n/a	n/a	n/a	n/a
326.0	2.7086529180015013	12	early	em_task	n/a	n/a	n/a	n/a	177.210639978249
328.7086529180015	0.75	12	early	em_task_post	n/a	n/a	n/a	n/a	n/a
