onset	duration	trial	trial_type	event_type	response_time	value_stimulus	value_reference	response_decision	response_estimation
0.0	1.5	1	late	stimulus	n/a	67.5	n/a	n/a	n/a
11.5	0.5	1	late	dm_task_pre	n/a	n/a	n/a	n/a	n/a
12.0	0.536020973988343	1	late	dm_task	0.536020973988343	n/a	21.0	-1.0	n/a
12.536020973988343	0.75	1	late	dm_task_post	n/a	n/a	n/a	n/a	n/a
17.5	0.5	1	late	em_task_pre	n/a	n/a	n/a	n/a	n/a
18.0	3.237773918983301	1	late	em_task	n/a	n/a	n/a	n/a	66.4753685180071
21.2377739189833	0.75	1	late	em_task_post	n/a	n/a	n/a	n/a	n/a
28.0	1.5	2	late	stimulus	n/a	15.0	n/a	n/a	n/a
39.5	0.5	2	late	dm_task_pre	n/a	n/a	n/a	n/a	n/a
40.0	0.794516833993839	2	late	dm_task	0.794516833993839	n/a	-4.0	1.0	n/a
40.79451683399384	0.75	2	late	dm_task_post	n/a	n/a	n/a	n/a	n/a
45.5	0.5	2	late	em_task_pre	n/a	n/a	n/a	n/a	n/a
46.0	3.7638662579993003	2	late	em_task	n/a	n/a	n/a	n/a	25.2283982165483
49.7638662579993	0.75	2	late	em_task_post	n/a	n/a	n/a	n/a	n/a
56.0	1.5	3	late	stimulus	n/a	105.0	n/a	n/a	n/a
67.5	0.5	3	late	dm_task_pre	n/a	n/a	n/a	n/a	n/a
68.0	0.736852611997165	3	late	dm_task	0.736852611997165	n/a	0.0	1.0	n/a
68.73685261199716	0.75	3	late	dm_task_post	n/a	n/a	n/a	n/a	n/a
73.5	0.5	3	late	em_task_pre	n/a	n/a	n/a	n/a	n/a
74.0	2.789906096004401	3	late	em_task	n/a	n/a	n/a	n/a	131.225010159205
76.7899060960044	0.75	3	late	em_task_post	n/a	n/a	n/a	n/a	n/a
84.0	1.5	4	early	stimulus	n/a	60.0	n/a	n/a	n/a
89.5	0.5	4	early	dm_task_pre	n/a	n/a	n/a	n/a	n/a
90.0	0.8949374310032	4	early	dm_task	0.8949374310032	n/a	-21.0	1.0	n/a
90.8949374310032	0.75	4	early	dm_task_post	n/a	n/a	n/a	n/a	n/a
101.5	0.5	4	early	em_task_pre	n/a	n/a	n/a	n/a	n/a
102.0	2.6323782359832	4	early	em_task	n/a	n/a	n/a	n/a	55.6559177013967
104.6323782359832	0.75	4	early	em_task_post	n/a	n/a	n/a	n/a	n/a
112.0	1.5	5	early	stimulus	n/a	97.5	n/a	n/a	n/a
117.5	0.5	5	early	dm_task_pre	n/a	n/a	n/a	n/a	n/a
118.0	0.986479329003487	5	early	dm_task	0.986479329003487	n/a	-21.0	1.0	n/a
118.98647932900349	0.75	5	early	dm_task_post	n/a	n/a	n/a	n/a	n/a
129.5	0.5	5	early	em_task_pre	n/a	n/a	n/a	n/a	n/a
130.0	3.208266325993499	5	early	em_task	n/a	n/a	n/a	n/a	110.288103129853
133.2082663259935	0.75	5	early	em_task_post	n/a	n/a	n/a	n/a	n/a
140.0	1.5	6	early	stimulus	n/a	75.0	n/a	n/a	n/a
145.5	0.5	6	early	dm_task_pre	n/a	n/a	n/a	n/a	n/a
146.0	1.06245152300107	6	early	dm_task	1.06245152300107	n/a	4.0	-1.0	n/a
147.06245152300107	0.75	6	early	dm_task_post	n/a	n/a	n/a	n/a	n/a
157.5	0.5	6	early	em_task_pre	n/a	n/a	n/a	n/a	n/a
158.0	4.267142080992901	6	early	em_task	n/a	n/a	n/a	n/a	63.977513808817
162.2671420809929	0.75	6	early	em_task_post	n/a	n/a	n/a	n/a	n/a
168.0	1.5	7	early	stimulus	n/a	165.0	n/a	n/a	n/a
173.5	0.5	7	early	dm_task_pre	n/a	n/a	n/a	n/a	n/a
174.0	0.787627862009685	7	early	dm_task	0.787627862009685	n/a	21.0	-1.0	n/a
174.78762786200969	0.75	7	early	dm_task_post	n/a	n/a	n/a	n/a	n/a
185.5	0.5	7	early	em_task_pre	n/a	n/a	n/a	n/a	n/a
186.0	2.4089640179882004	7	early	em_task	n/a	n/a	n/a	n/a	156.073662184766
188.4089640179882	0.75	7	early	em_task_post	n/a	n/a	n/a	n/a	n/a
196.0	1.5	8	early	stimulus	n/a	120.0	n/a	n/a	n/a
201.5	0.5	8	early	dm_task_pre	n/a	n/a	n/a	n/a	n/a
202.0	1.19733321099193	8	early	dm_task	1.19733321099193	n/a	-4.0	-1.0	n/a
203.19733321099193	0.75	8	early	dm_task_post	n/a	n/a	n/a	n/a	n/a
213.5	0.5	8	early	em_task_pre	n/a	n/a	n/a	n/a	n/a
214.0	2.5842657120082997	8	early	em_task	n/a	n/a	n/a	n/a	120.260669866151
216.5842657120083	0.75	8	early	em_task_post	n/a	n/a	n/a	n/a	n/a
224.0	1.5	9	late	stimulus	n/a	30.0	n/a	n/a	n/a
235.5	0.5	9	late	dm_task_pre	n/a	n/a	n/a	n/a	n/a
236.0	0.591020535008283	9	late	dm_task	0.591020535008283	n/a	21.0	-1.0	n/a
236.59102053500828	0.75	9	late	dm_task_post	n/a	n/a	n/a	n/a	n/a
241.5	0.5	9	late	em_task_pre	n/a	n/a	n/a	n/a	n/a
242.0	3.178425155987501	9	late	em_task	n/a	n/a	n/a	n/a	35.037397726524
245.1784251559875	0.75	9	late	em_task_post	n/a	n/a	n/a	n/a	n/a
252.0	1.5	10	early	stimulus	n/a	90.0	n/a	n/a	n/a
257.5	0.5	10	early	dm_task_pre	n/a	n/a	n/a	n/a	n/a
258.0	0.765877114987234	10	early	dm_task	0.765877114987234	n/a	-4.0	-1.0	n/a
258.76587711498723	0.75	10	early	dm_task_post	n/a	n/a	n/a	n/a	n/a
269.5	0.5	10	early	em_task_pre	n/a	n/a	n/a	n/a	n/a
270.0	3.7872600249829986	10	early	em_task	n/a	n/a	n/a	n/a	82.3488989106858
273.78726002498297	0.75	10	early	em_task_post	n/a	n/a	n/a	n/a	n/a
280.0	1.5	11	early	stimulus	n/a	142.5	n/a	n/a	n/a
285.5	0.5	11	early	dm_task_pre	n/a	n/a	n/a	n/a	n/a
286.0	0.740463281981647	11	early	dm_task	0.740463281981647	n/a	-4.0	-1.0	n/a
286.74046328198165	0.75	11	early	dm_task_post	n/a	n/a	n/a	n/a	n/a
297.5	0.5	11	early	em_task_pre	n/a	n/a	n/a	n/a	n/a
298.0	2.712713711982399	11	early	em_task	n/a	n/a	n/a	n/a	124.981985918256
300.7127137119824	0.75	11	early	em_task_post	n/a	n/a	n/a	n/a	n/a
308.0	1.5	12	early	stimulus	n/a	150.0	n/a	n/a	n/a
313.5	0.5	12	early	dm_task_pre	n/a	n/a	n/a	n/a	n/a
314.0	1.21760251000524	12	early	dm_task	1.21760251000524	n/a	-4.0	-1.0	n/a
315.21760251000524	0.75	12	early	dm_task_post	n/a	n/a	n/a	n/a	n/a
325.5	0.5	12	early	em_task_pre	n/a	n/a	n/a	n/a	n/a
326.0	3.1716159149946	12	early	em_task	n/a	n/a	n/a	n/a	144.23830283314
329.1716159149946	0.75	12	early	em_task_post	n/a	n/a	n/a	n/a	n/a
