onset	duration	trial	trial_type	event_type	response_time	value_stimulus	value_reference	response_decision	response_estimation
0.0	1.5	1	late	stimulus	n/a	22.5	n/a	n/a	n/a
11.5	0.5	1	late	dm_task_pre	n/a	n/a	n/a	n/a	n/a
12.0	0.562892610000063	1	late	dm_task	0.562892610000063	n/a	4.0	-1.0	n/a
12.562892610000063	0.75	1	late	dm_task_post	n/a	n/a	n/a	n/a	n/a
17.5	0.5	1	late	em_task_pre	n/a	n/a	n/a	n/a	n/a
18.0	2.2608698000001013	1	late	em_task	n/a	n/a	n/a	n/a	9.04161936450069
20.2608698000001	0.75	1	late	em_task_post	n/a	n/a	n/a	n/a	n/a
28.0	1.5	2	late	stimulus	n/a	52.5	n/a	n/a	n/a
39.5	0.5	2	late	dm_task_pre	n/a	n/a	n/a	n/a	n/a
40.0	0.499793634000071	2	late	dm_task	0.499793634000071	n/a	21.0	-1.0	n/a
40.49979363400007	0.75	2	late	dm_task_post	n/a	n/a	n/a	n/a	n/a
45.5	0.5	2	late	em_task_pre	n/a	n/a	n/a	n/a	n/a
46.0	1.9982316360000993	2	late	em_task	n/a	n/a	n/a	n/a	24.6799151747033
47.9982316360001	0.75	2	late	em_task_post	n/a	n/a	n/a	n/a	n/a
56.0	1.5	3	late	stimulus	n/a	0.0	n/a	n/a	n/a
67.5	0.5	3	late	dm_task_pre	n/a	n/a	n/a	n/a	n/a
68.0	0.704303449999998	3	late	dm_task	0.704303449999998	n/a	4.0	-1.0	n/a
68.70430345	0.75	3	late	dm_task_post	n/a	n/a	n/a	n/a	n/a
73.5	0.5	3	late	em_task_pre	n/a	n/a	n/a	n/a	n/a
74.0	1.6374252089999999	3	late	em_task	n/a	n/a	n/a	n/a	174.17118213095
75.637425209	0.75	3	late	em_task_post	n/a	n/a	n/a	n/a	n/a
84.0	1.5	4	early	stimulus	n/a	7.5	n/a	n/a	n/a
89.5	0.5	4	early	dm_task_pre	n/a	n/a	n/a	n/a	n/a
90.0	1.06085856100003	4	early	dm_task	1.06085856100003	n/a	0.0	-1.0	n/a
91.06085856100003	0.75	4	early	dm_task_post	n/a	n/a	n/a	n/a	n/a
101.5	0.5	4	early	em_task_pre	n/a	n/a	n/a	n/a	n/a
102.0	2.7900230000000015	4	early	em_task	n/a	n/a	n/a	n/a	8.25094961638834
104.790023	0.75	4	early	em_task_post	n/a	n/a	n/a	n/a	n/a
112.0	1.5	5	late	stimulus	n/a	135.0	n/a	n/a	n/a
123.5	0.5	5	late	dm_task_pre	n/a	n/a	n/a	n/a	n/a
124.0	0.721004899000036	5	late	dm_task	0.721004899000036	n/a	0.0	-1.0	n/a
124.72100489900004	0.75	5	late	dm_task_post	n/a	n/a	n/a	n/a	n/a
129.5	0.5	5	late	em_task_pre	n/a	n/a	n/a	n/a	n/a
130.0	2.544341891000201	5	late	em_task	n/a	n/a	n/a	n/a	126.061037400674
132.54434189100022	0.75	5	late	em_task_post	n/a	n/a	n/a	n/a	n/a
140.0	1.5	6	late	stimulus	n/a	67.5	n/a	n/a	n/a
151.5	0.5	6	late	dm_task_pre	n/a	n/a	n/a	n/a	n/a
152.0	0.999975259000166	6	late	dm_task	0.999975259000166	n/a	-4.0	1.0	n/a
152.99997525900017	0.75	6	late	dm_task_post	n/a	n/a	n/a	n/a	n/a
157.5	0.5	6	late	em_task_pre	n/a	n/a	n/a	n/a	n/a
158.0	1.8650722490001002	6	late	em_task	n/a	n/a	n/a	n/a	66.6045007889308
159.8650722490001	0.75	6	late	em_task_post	n/a	n/a	n/a	n/a	n/a
168.0	1.5	7	early	stimulus	n/a	97.5	n/a	n/a	n/a
173.5	0.5	7	early	dm_task_pre	n/a	n/a	n/a	n/a	n/a
174.0	0.777346401000159	7	early	dm_task	0.777346401000159	n/a	-4.0	1.0	n/a
174.77734640100016	0.75	7	early	dm_task_post	n/a	n/a	n/a	n/a	n/a
185.5	0.5	7	early	em_task_pre	n/a	n/a	n/a	n/a	n/a
186.0	3.1530772340000013	7	early	em_task	n/a	n/a	n/a	n/a	94.7835493029291
189.153077234	0.75	7	early	em_task_post	n/a	n/a	n/a	n/a	n/a
196.0	1.5	8	early	stimulus	n/a	82.5	n/a	n/a	n/a
201.5	0.5	8	early	dm_task_pre	n/a	n/a	n/a	n/a	n/a
202.0	1.08656985800008	8	early	dm_task	1.08656985800008	n/a	0.0	-1.0	n/a
203.08656985800008	0.75	8	early	dm_task_post	n/a	n/a	n/a	n/a	n/a
213.5	0.5	8	early	em_task_pre	n/a	n/a	n/a	n/a	n/a
214.0	2.7897912990002	8	early	em_task	n/a	n/a	n/a	n/a	78.4788286480979
216.7897912990002	0.75	8	early	em_task_post	n/a	n/a	n/a	n/a	n/a
224.0	1.5	9	late	stimulus	n/a	30.0	n/a	n/a	n/a
235.5	0.5	9	late	dm_task_pre	n/a	n/a	n/a	n/a	n/a
236.0	0.729566791000025	9	late	dm_task	0.729566791000025	n/a	21.0	-1.0	n/a
236.72956679100002	0.75	9	late	dm_task_post	n/a	n/a	n/a	n/a	n/a
241.5	0.5	9	late	em_task_pre	n/a	n/a	n/a	n/a	n/a
242.0	3.264400959000099	9	late	em_task	n/a	n/a	n/a	n/a	13.3378265230392
245.2644009590001	0.75	9	late	em_task_post	n/a	n/a	n/a	n/a	n/a
252.0	1.5	10	late	stimulus	n/a	127.5	n/a	n/a	n/a
263.5	0.5	10	late	dm_task_pre	n/a	n/a	n/a	n/a	n/a
264.0	0.967417539000053	10	late	dm_task	0.967417539000053	n/a	4.0	1.0	n/a
264.96741753900005	0.75	10	late	dm_task_post	n/a	n/a	n/a	n/a	n/a
269.5	0.5	10	late	em_task_pre	n/a	n/a	n/a	n/a	n/a
270.0	3.1985045070000986	10	late	em_task	n/a	n/a	n/a	n/a	148.310059513414
273.1985045070001	0.75	10	late	em_task_post	n/a	n/a	n/a	n/a	n/a
280.0	1.5	11	late	stimulus	n/a	37.5	n/a	n/a	n/a
291.5	0.5	11	late	dm_task_pre	n/a	n/a	n/a	n/a	n/a
292.0	1.19678029900001	11	late	dm_task	1.19678029900001	n/a	-21.0	1.0	n/a
293.196780299	0.75	11	late	dm_task_post	n/a	n/a	n/a	n/a	n/a
297.5	0.5	11	late	em_task_pre	n/a	n/a	n/a	n/a	n/a
298.0	2.4091106250000003	11	late	em_task	n/a	n/a	n/a	n/a	17.2846824458228
300.409110625	0.75	11	late	em_task_post	n/a	n/a	n/a	n/a	n/a
308.0	1.5	12	late	stimulus	n/a	105.0	n/a	n/a	n/a
319.5	0.5	12	late	dm_task_pre	n/a	n/a	n/a	n/a	n/a
320.0	0.942638716000147	12	late	dm_task	0.942638716000147	n/a	-4.0	-1.0	n/a
320.94263871600015	0.75	12	late	dm_task_post	n/a	n/a	n/a	n/a	n/a
325.5	0.5	12	late	em_task_pre	n/a	n/a	n/a	n/a	n/a
326.0	3.0733276320000016	12	late	em_task	n/a	n/a	n/a	n/a	108.552294331044
329.073327632	0.75	12	late	em_task_post	n/a	n/a	n/a	n/a	n/a
