onset	duration	trial	trial_type	event_type	response_time	value_stimulus	value_reference	response_decision	response_estimation
0.0	1.5	1	early	stimulus	n/a	127.5	n/a	n/a	n/a
5.5	0.5	1	early	dm_task_pre	n/a	n/a	n/a	n/a	n/a
6.0	0.97426315600751	1	early	dm_task	0.97426315600751	n/a	4.0	1.0	n/a
6.97426315600751	0.75	1	early	dm_task_post	n/a	n/a	n/a	n/a	n/a
17.5	0.5	1	early	em_task_pre	n/a	n/a	n/a	n/a	n/a
18.0	2.9129547309713004	1	early	em_task	n/a	n/a	n/a	n/a	125.620233152813
20.9129547309713	0.75	1	early	em_task_post	n/a	n/a	n/a	n/a	n/a
28.0	1.5	2	early	stimulus	n/a	60.0	n/a	n/a	n/a
33.5	0.5	2	early	dm_task_pre	n/a	n/a	n/a	n/a	n/a
34.0	1.23289260099409	2	early	dm_task	1.23289260099409	n/a	0.0	1.0	n/a
35.23289260099409	0.75	2	early	dm_task_post	n/a	n/a	n/a	n/a	n/a
45.5	0.5	2	early	em_task_pre	n/a	n/a	n/a	n/a	n/a
46.0	3.7053633300238005	2	early	em_task	n/a	n/a	n/a	n/a	46.678376953217
49.7053633300238	0.75	2	early	em_task_post	n/a	n/a	n/a	n/a	n/a
56.0	1.5	3	late	stimulus	n/a	82.5	n/a	n/a	n/a
67.5	0.5	3	late	dm_task_pre	n/a	n/a	n/a	n/a	n/a
68.0	1.21211680700071	3	late	dm_task	1.21211680700071	n/a	21.0	1.0	n/a
69.21211680700071	0.75	3	late	dm_task_post	n/a	n/a	n/a	n/a	n/a
73.5	0.5	3	late	em_task_pre	n/a	n/a	n/a	n/a	n/a
74.0	3.930729317013199	3	late	em_task	n/a	n/a	n/a	n/a	76.6658686145072
77.9307293170132	0.75	3	late	em_task_post	n/a	n/a	n/a	n/a	n/a
84.0	1.5	4	early	stimulus	n/a	142.5	n/a	n/a	n/a
89.5	0.5	4	early	dm_task_pre	n/a	n/a	n/a	n/a	n/a
90.0	1.23460630298359	4	early	dm_task	1.23460630298359	n/a	-4.0	1.0	n/a
91.2346063029836	0.75	4	early	dm_task_post	n/a	n/a	n/a	n/a	n/a
101.5	0.5	4	early	em_task_pre	n/a	n/a	n/a	n/a	n/a
102.0	4.223767554969498	4	early	em_task	n/a	n/a	n/a	n/a	145.621654158142
106.2237675549695	0.75	4	early	em_task_post	n/a	n/a	n/a	n/a	n/a
112.0	1.5	5	early	stimulus	n/a	30.0	n/a	n/a	n/a
117.5	0.5	5	early	dm_task_pre	n/a	n/a	n/a	n/a	n/a
118.0	1.32797708798898	5	early	dm_task	1.32797708798898	n/a	-4.0	1.0	n/a
119.32797708798898	0.75	5	early	dm_task_post	n/a	n/a	n/a	n/a	n/a
129.5	0.5	5	early	em_task_pre	n/a	n/a	n/a	n/a	n/a
130.0	3.5331082839983985	5	early	em_task	n/a	n/a	n/a	n/a	23.5392783407432
133.5331082839984	0.75	5	early	em_task_post	n/a	n/a	n/a	n/a	n/a
140.0	1.5	6	early	stimulus	n/a	45.0	n/a	n/a	n/a
145.5	0.5	6	early	dm_task_pre	n/a	n/a	n/a	n/a	n/a
146.0	1.5	6	early	dm_task	1.51964730100008	n/a	4.0	-1.0	n/a
147.5	0.75	6	early	dm_task_post	n/a	n/a	n/a	n/a	n/a
157.5	0.5	6	early	em_task_pre	n/a	n/a	n/a	n/a	n/a
158.0	3.4412761069833984	6	early	em_task	n/a	n/a	n/a	n/a	36.8511246599575
161.4412761069834	0.75	6	early	em_task_post	n/a	n/a	n/a	n/a	n/a
168.0	1.5	7	early	stimulus	n/a	172.5	n/a	n/a	n/a
173.5	0.5	7	early	dm_task_pre	n/a	n/a	n/a	n/a	n/a
174.0	0.746362723002676	7	early	dm_task	0.746362723002676	n/a	4.0	-1.0	n/a
174.74636272300268	0.75	7	early	dm_task_post	n/a	n/a	n/a	n/a	n/a
185.5	0.5	7	early	em_task_pre	n/a	n/a	n/a	n/a	n/a
186.0	3.0505077819689	7	early	em_task	n/a	n/a	n/a	n/a	160.107843200791
189.0505077819689	0.75	7	early	em_task_post	n/a	n/a	n/a	n/a	n/a
196.0	1.5	8	early	stimulus	n/a	37.5	n/a	n/a	n/a
201.5	0.5	8	early	dm_task_pre	n/a	n/a	n/a	n/a	n/a
202.0	0.82135024399031	8	early	dm_task	0.82135024399031	n/a	4.0	-1.0	n/a
202.8213502439903	0.75	8	early	dm_task_post	n/a	n/a	n/a	n/a	n/a
213.5	0.5	8	early	em_task_pre	n/a	n/a	n/a	n/a	n/a
214.0	3.0261249169707014	8	early	em_task	n/a	n/a	n/a	n/a	20.031275323313
217.0261249169707	0.75	8	early	em_task_post	n/a	n/a	n/a	n/a	n/a
224.0	1.5	9	early	stimulus	n/a	112.5	n/a	n/a	n/a
229.5	0.5	9	early	dm_task_pre	n/a	n/a	n/a	n/a	n/a
230.0	1.33092896599555	9	early	dm_task	1.33092896599555	n/a	4.0	-1.0	n/a
231.33092896599555	0.75	9	early	dm_task_post	n/a	n/a	n/a	n/a	n/a
241.5	0.5	9	early	em_task_pre	n/a	n/a	n/a	n/a	n/a
242.0	2.9697900490136995	9	early	em_task	n/a	n/a	n/a	n/a	108.517134774676
244.9697900490137	0.75	9	early	em_task_post	n/a	n/a	n/a	n/a	n/a
252.0	1.5	10	early	stimulus	n/a	135.0	n/a	n/a	n/a
257.5	0.5	10	early	dm_task_pre	n/a	n/a	n/a	n/a	n/a
258.0	0.873736220994033	10	early	dm_task	0.873736220994033	n/a	21.0	-1.0	n/a
258.87373622099403	0.75	10	early	dm_task_post	n/a	n/a	n/a	n/a	n/a
269.5	0.5	10	early	em_task_pre	n/a	n/a	n/a	n/a	n/a
270.0	3.1779124159948005	10	early	em_task	n/a	n/a	n/a	n/a	130.232742005286
273.1779124159948	0.75	10	early	em_task_post	n/a	n/a	n/a	n/a	n/a
280.0	1.5	11	early	stimulus	n/a	67.5	n/a	n/a	n/a
285.5	0.5	11	early	dm_task_pre	n/a	n/a	n/a	n/a	n/a
286.0	1.40012870699866	11	early	dm_task	1.40012870699866	n/a	0.0	-1.0	n/a
287.40012870699866	0.75	11	early	dm_task_post	n/a	n/a	n/a	n/a	n/a
297.5	0.5	11	early	em_task_pre	n/a	n/a	n/a	n/a	n/a
298.0	3.0708216400234996	11	early	em_task	n/a	n/a	n/a	n/a	53.9790463665014
301.0708216400235	0.75	11	early	em_task_post	n/a	n/a	n/a	n/a	n/a
308.0	1.5	12	early	stimulus	n/a	90.0	n/a	n/a	n/a
313.5	0.5	12	early	dm_task_pre	n/a	n/a	n/a	n/a	n/a
314.0	1.34084542898927	12	early	dm_task	1.34084542898927	n/a	0.0	1.0	n/a
315.34084542898927	0.75	12	early	dm_task_post	n/a	n/a	n/a	n/a	n/a
325.5	0.5	12	early	em_task_pre	n/a	n/a	n/a	n/a	n/a
326.0	2.2798436210142015	12	early	em_task	n/a	n/a	n/a	n/a	93.5387649782486
328.2798436210142	0.75	12	early	em_task_post	n/a	n/a	n/a	n/a	n/a
