onset	duration	trial	trial_type	event_type	response_time	value_stimulus	value_reference	response_decision	response_estimation
0.0	1.5	1	late	stimulus	n/a	67.5	n/a	n/a	n/a
11.5	0.5	1	late	dm_task_pre	n/a	n/a	n/a	n/a	n/a
12.0	0.721627494960558	1	late	dm_task	0.721627494960558	n/a	4.0	-1.0	n/a
12.721627494960558	0.75	1	late	dm_task_post	n/a	n/a	n/a	n/a	n/a
17.5	0.5	1	late	em_task_pre	n/a	n/a	n/a	n/a	n/a
18.0	3.573450970987299	1	late	em_task	n/a	n/a	n/a	n/a	61.3359340754556
21.5734509709873	0.75	1	late	em_task_post	n/a	n/a	n/a	n/a	n/a
28.0	1.5	2	early	stimulus	n/a	142.5	n/a	n/a	n/a
33.5	0.5	2	early	dm_task_pre	n/a	n/a	n/a	n/a	n/a
34.0	0.761707686993759	2	early	dm_task	0.761707686993759	n/a	4.0	-1.0	n/a
34.76170768699376	0.75	2	early	dm_task_post	n/a	n/a	n/a	n/a	n/a
45.5	0.5	2	early	em_task_pre	n/a	n/a	n/a	n/a	n/a
46.0	3.5011280109757017	2	early	em_task	n/a	n/a	n/a	n/a	123.124707073633
49.501128010975705	0.75	2	early	em_task_post	n/a	n/a	n/a	n/a	n/a
56.0	1.5	3	late	stimulus	n/a	7.5	n/a	n/a	n/a
67.5	0.5	3	late	dm_task_pre	n/a	n/a	n/a	n/a	n/a
68.0	1.17173696699319	3	late	dm_task	1.17173696699319	n/a	4.0	-1.0	n/a
69.1717369669932	0.75	3	late	dm_task_post	n/a	n/a	n/a	n/a	n/a
73.5	0.5	3	late	em_task_pre	n/a	n/a	n/a	n/a	n/a
74.0	2.5752487810095985	3	late	em_task	n/a	n/a	n/a	n/a	5.0923769609216
76.5752487810096	0.75	3	late	em_task_post	n/a	n/a	n/a	n/a	n/a
84.0	1.5	4	late	stimulus	n/a	82.5	n/a	n/a	n/a
95.5	0.5	4	late	dm_task_pre	n/a	n/a	n/a	n/a	n/a
96.0	1.31459042197093	4	late	dm_task	1.31459042197093	n/a	0.0	-1.0	n/a
97.31459042197093	0.75	4	late	dm_task_post	n/a	n/a	n/a	n/a	n/a
101.5	0.5	4	late	em_task_pre	n/a	n/a	n/a	n/a	n/a
102.0	3.0017026030109015	4	late	em_task	n/a	n/a	n/a	n/a	71.9446956204332
105.0017026030109	0.75	4	late	em_task_post	n/a	n/a	n/a	n/a	n/a
112.0	1.5	5	late	stimulus	n/a	37.5	n/a	n/a	n/a
123.5	0.5	5	late	dm_task_pre	n/a	n/a	n/a	n/a	n/a
124.0	0.858154446003027	5	late	dm_task	0.858154446003027	n/a	21.0	-1.0	n/a
124.85815444600303	0.75	5	late	dm_task_post	n/a	n/a	n/a	n/a	n/a
129.5	0.5	5	late	em_task_pre	n/a	n/a	n/a	n/a	n/a
130.0	3.6952267579618017	5	late	em_task	n/a	n/a	n/a	n/a	28.4156817102826
133.6952267579618	0.75	5	late	em_task_post	n/a	n/a	n/a	n/a	n/a
140.0	1.5	6	late	stimulus	n/a	135.0	n/a	n/a	n/a
151.5	0.5	6	late	dm_task_pre	n/a	n/a	n/a	n/a	n/a
152.0	1.45019844599301	6	late	dm_task	1.45019844599301	n/a	-4.0	1.0	n/a
153.450198445993	0.75	6	late	dm_task_post	n/a	n/a	n/a	n/a	n/a
157.5	0.5	6	late	em_task_pre	n/a	n/a	n/a	n/a	n/a
158.0	3.4861685459617995	6	late	em_task	n/a	n/a	n/a	n/a	132.771616056606
161.4861685459618	0.75	6	late	em_task_post	n/a	n/a	n/a	n/a	n/a
168.0	1.5	7	late	stimulus	n/a	150.0	n/a	n/a	n/a
179.5	0.5	7	late	dm_task_pre	n/a	n/a	n/a	n/a	n/a
180.0	1.12604630197166	7	late	dm_task	1.12604630197166	n/a	-4.0	1.0	n/a
181.12604630197166	0.75	7	late	dm_task_post	n/a	n/a	n/a	n/a	n/a
185.5	0.5	7	late	em_task_pre	n/a	n/a	n/a	n/a	n/a
186.0	3.5288258870131983	7	late	em_task	n/a	n/a	n/a	n/a	126.194668175846
189.5288258870132	0.75	7	late	em_task_post	n/a	n/a	n/a	n/a	n/a
196.0	1.5	8	early	stimulus	n/a	127.5	n/a	n/a	n/a
201.5	0.5	8	early	dm_task_pre	n/a	n/a	n/a	n/a	n/a
202.0	0.966220891976263	8	early	dm_task	0.966220891976263	n/a	0.0	-1.0	n/a
202.96622089197626	0.75	8	early	dm_task_post	n/a	n/a	n/a	n/a	n/a
213.5	0.5	8	early	em_task_pre	n/a	n/a	n/a	n/a	n/a
214.0	3.972087931004399	8	early	em_task	n/a	n/a	n/a	n/a	124.893768462734
217.9720879310044	0.75	8	early	em_task_post	n/a	n/a	n/a	n/a	n/a
224.0	1.5	9	late	stimulus	n/a	172.5	n/a	n/a	n/a
235.5	0.5	9	late	dm_task_pre	n/a	n/a	n/a	n/a	n/a
236.0	1.5	9	late	dm_task	n/a	n/a	-21.0	n/a	n/a
237.5	0.75	9	late	dm_task_post	n/a	n/a	n/a	n/a	n/a
241.5	0.5	9	late	em_task_pre	n/a	n/a	n/a	n/a	n/a
242.0	1.4972803620038988	9	late	em_task	n/a	n/a	n/a	n/a	159.049630489021
243.4972803620039	0.75	9	late	em_task_post	n/a	n/a	n/a	n/a	n/a
252.0	1.5	10	early	stimulus	n/a	52.5	n/a	n/a	n/a
257.5	0.5	10	early	dm_task_pre	n/a	n/a	n/a	n/a	n/a
258.0	0.867826210975181	10	early	dm_task	0.867826210975181	n/a	21.0	1.0	n/a
258.8678262109752	0.75	10	early	dm_task_post	n/a	n/a	n/a	n/a	n/a
269.5	0.5	10	early	em_task_pre	n/a	n/a	n/a	n/a	n/a
270.0	1.9404937279760013	10	early	em_task	n/a	n/a	n/a	n/a	106.585278899149
271.940493727976	0.75	10	early	em_task_post	n/a	n/a	n/a	n/a	n/a
280.0	1.5	11	early	stimulus	n/a	97.5	n/a	n/a	n/a
285.5	0.5	11	early	dm_task_pre	n/a	n/a	n/a	n/a	n/a
286.0	1.5	11	early	dm_task	n/a	n/a	0.0	n/a	n/a
287.5	0.75	11	early	dm_task_post	n/a	n/a	n/a	n/a	n/a
297.5	0.5	11	early	em_task_pre	n/a	n/a	n/a	n/a	n/a
298.0	2.4819703769754007	11	early	em_task	n/a	n/a	n/a	n/a	104.888500191618
300.4819703769754	0.75	11	early	em_task_post	n/a	n/a	n/a	n/a	n/a
308.0	1.5	12	early	stimulus	n/a	75.0	n/a	n/a	n/a
313.5	0.5	12	early	dm_task_pre	n/a	n/a	n/a	n/a	n/a
314.0	1.03655044495827	12	early	dm_task	1.03655044495827	n/a	4.0	-1.0	n/a
315.03655044495827	0.75	12	early	dm_task_post	n/a	n/a	n/a	n/a	n/a
325.5	0.5	12	early	em_task_pre	n/a	n/a	n/a	n/a	n/a
326.0	1.7245998159632983	12	early	em_task	n/a	n/a	n/a	n/a	78.1903859363573
327.7245998159633	0.75	12	early	em_task_post	n/a	n/a	n/a	n/a	n/a
