onset	duration	trial	trial_type	event_type	response_time	value_stimulus	value_reference	response_decision	response_estimation
0.0	1.5	1	early	stimulus	n/a	127.5	n/a	n/a	n/a
5.5	0.5	1	early	dm_task_pre	n/a	n/a	n/a	n/a	n/a
6.0	0.52670499595115	1	early	dm_task	0.52670499595115	n/a	21.0	-1.0	n/a
6.52670499595115	0.75	1	early	dm_task_post	n/a	n/a	n/a	n/a	n/a
17.5	0.5	1	early	em_task_pre	n/a	n/a	n/a	n/a	n/a
18.0	2.660843699995901	1	early	em_task	n/a	n/a	n/a	n/a	124.354119364501
20.6608436999959	0.75	1	early	em_task_post	n/a	n/a	n/a	n/a	n/a
28.0	1.5	2	early	stimulus	n/a	150.0	n/a	n/a	n/a
33.5	0.5	2	early	dm_task_pre	n/a	n/a	n/a	n/a	n/a
34.0	0.668639144976623	2	early	dm_task	0.668639144976623	n/a	4.0	-1.0	n/a
34.66863914497662	0.75	2	early	dm_task_post	n/a	n/a	n/a	n/a	n/a
45.5	0.5	2	early	em_task_pre	n/a	n/a	n/a	n/a	n/a
46.0	1.5821324680001005	2	early	em_task	n/a	n/a	n/a	n/a	154.758040174703
47.5821324680001	0.75	2	early	em_task_post	n/a	n/a	n/a	n/a	n/a
56.0	1.5	3	late	stimulus	n/a	142.5	n/a	n/a	n/a
67.5	0.5	3	late	dm_task_pre	n/a	n/a	n/a	n/a	n/a
68.0	0.505708829965442	3	late	dm_task	0.505708829965442	n/a	21.0	-1.0	n/a
68.50570882996544	0.75	3	late	dm_task_post	n/a	n/a	n/a	n/a	n/a
73.5	0.5	3	late	em_task_pre	n/a	n/a	n/a	n/a	n/a
74.0	1.4415642449748987	3	late	em_task	n/a	n/a	n/a	n/a	139.71805713095
75.4415642449749	0.75	3	late	em_task_post	n/a	n/a	n/a	n/a	n/a
84.0	1.5	4	late	stimulus	n/a	22.5	n/a	n/a	n/a
95.5	0.5	4	late	dm_task_pre	n/a	n/a	n/a	n/a	n/a
96.0	0.879350106988568	4	late	dm_task	0.879350106988568	n/a	4.0	-1.0	n/a
96.87935010698857	0.75	4	late	dm_task_post	n/a	n/a	n/a	n/a	n/a
101.5	0.5	4	late	em_task_pre	n/a	n/a	n/a	n/a	n/a
102.0	2.3762015179963996	4	late	em_task	n/a	n/a	n/a	n/a	46.2196996163883
104.3762015179964	0.75	4	late	em_task_post	n/a	n/a	n/a	n/a	n/a
112.0	1.5	5	early	stimulus	n/a	82.5	n/a	n/a	n/a
117.5	0.5	5	early	dm_task_pre	n/a	n/a	n/a	n/a	n/a
118.0	0.571300705953036	5	early	dm_task	0.571300705953036	n/a	0.0	-1.0	n/a
118.57130070595304	0.75	5	early	dm_task_post	n/a	n/a	n/a	n/a	n/a
129.5	0.5	5	early	em_task_pre	n/a	n/a	n/a	n/a	n/a
130.0	1.8007959899841985	5	early	em_task	n/a	n/a	n/a	n/a	74.0297874006736
131.8007959899842	0.75	5	early	em_task_post	n/a	n/a	n/a	n/a	n/a
140.0	1.5	6	late	stimulus	n/a	45.0	n/a	n/a	n/a
151.5	0.5	6	late	dm_task_pre	n/a	n/a	n/a	n/a	n/a
152.0	0.824940055957995	6	late	dm_task	0.824940055957995	n/a	-21.0	1.0	n/a
152.824940055958	0.75	6	late	dm_task_post	n/a	n/a	n/a	n/a	n/a
157.5	0.5	6	late	em_task_pre	n/a	n/a	n/a	n/a	n/a
158.0	1.7555608399561997	6	late	em_task	n/a	n/a	n/a	n/a	54.6513757889308
159.7555608399562	0.75	6	late	em_task_post	n/a	n/a	n/a	n/a	n/a
168.0	1.5	7	early	stimulus	n/a	60.0	n/a	n/a	n/a
173.5	0.5	7	early	dm_task_pre	n/a	n/a	n/a	n/a	n/a
174.0	0.601178807963151	7	early	dm_task	0.601178807963151	n/a	21.0	-1.0	n/a
174.60117880796315	0.75	7	early	dm_task_post	n/a	n/a	n/a	n/a	n/a
185.5	0.5	7	early	em_task_pre	n/a	n/a	n/a	n/a	n/a
186.0	2.613988462952001	7	early	em_task	n/a	n/a	n/a	n/a	58.2210493029291
188.613988462952	0.75	7	early	em_task_post	n/a	n/a	n/a	n/a	n/a
196.0	1.5	8	late	stimulus	n/a	75.0	n/a	n/a	n/a
207.5	0.5	8	late	dm_task_pre	n/a	n/a	n/a	n/a	n/a
208.0	0.55520040995907	8	late	dm_task	0.55520040995907	n/a	21.0	-1.0	n/a
208.55520040995907	0.75	8	late	dm_task_post	n/a	n/a	n/a	n/a	n/a
213.5	0.5	8	late	em_task_pre	n/a	n/a	n/a	n/a	n/a
214.0	3.6223487439565005	8	late	em_task	n/a	n/a	n/a	n/a	70.0413286480979
217.6223487439565	0.75	8	late	em_task_post	n/a	n/a	n/a	n/a	n/a
224.0	1.5	9	late	stimulus	n/a	135.0	n/a	n/a	n/a
235.5	0.5	9	late	dm_task_pre	n/a	n/a	n/a	n/a	n/a
236.0	1.04479040298611	9	late	dm_task	1.04479040298611	n/a	0.0	1.0	n/a
237.0447904029861	0.75	9	late	dm_task_post	n/a	n/a	n/a	n/a	n/a
241.5	0.5	9	late	em_task_pre	n/a	n/a	n/a	n/a	n/a
242.0	1.2938827640027988	9	late	em_task	n/a	n/a	n/a	n/a	129.353451523039
243.2938827640028	0.75	9	late	em_task_post	n/a	n/a	n/a	n/a	n/a
252.0	1.5	10	early	stimulus	n/a	15.0	n/a	n/a	n/a
257.5	0.5	10	early	dm_task_pre	n/a	n/a	n/a	n/a	n/a
258.0	1.30330517498078	10	early	dm_task	1.30330517498078	n/a	-4.0	1.0	n/a
259.3033051749808	0.75	10	early	dm_task_post	n/a	n/a	n/a	n/a	n/a
269.5	0.5	10	early	em_task_pre	n/a	n/a	n/a	n/a	n/a
270.0	2.4005020699697006	10	early	em_task	n/a	n/a	n/a	n/a	32.2944345134141
272.4005020699697	0.75	10	early	em_task_post	n/a	n/a	n/a	n/a	n/a
280.0	1.5	11	early	stimulus	n/a	90.0	n/a	n/a	n/a
285.5	0.5	11	early	dm_task_pre	n/a	n/a	n/a	n/a	n/a
286.0	1.09265028196387	11	early	dm_task	1.09265028196387	n/a	0.0	-1.0	n/a
287.09265028196387	0.75	11	early	dm_task_post	n/a	n/a	n/a	n/a	n/a
297.5	0.5	11	early	em_task_pre	n/a	n/a	n/a	n/a	n/a
298.0	2.6071114649530998	11	early	em_task	n/a	n/a	n/a	n/a	86.8940574458228
300.6071114649531	0.75	11	early	em_task_post	n/a	n/a	n/a	n/a	n/a
308.0	1.5	12	late	stimulus	n/a	105.0	n/a	n/a	n/a
319.5	0.5	12	late	dm_task_pre	n/a	n/a	n/a	n/a	n/a
320.0	1.09800996596459	12	late	dm_task	1.09800996596459	n/a	4.0	-1.0	n/a
321.0980099659646	0.75	12	late	dm_task_post	n/a	n/a	n/a	n/a	n/a
325.5	0.5	12	late	em_task_pre	n/a	n/a	n/a	n/a	n/a
326.0	1.8297727339667986	12	late	em_task	n/a	n/a	n/a	n/a	108.552294331044
327.8297727339668	0.75	12	late	em_task_post	n/a	n/a	n/a	n/a	n/a
