onset	duration	trial	trial_type	event_type	response_time	value_stimulus	value_reference	response_decision	response_estimation
0.0	1.5	1	early	stimulus	n/a	37.5	n/a	n/a	n/a
5.5	0.5	1	early	dm_task_pre	n/a	n/a	n/a	n/a	n/a
6.0	0.893511699999863	1	early	dm_task	0.893511699999863	n/a	0.0	1.0	n/a
6.893511699999863	0.75	1	early	dm_task_post	n/a	n/a	n/a	n/a	n/a
17.5	0.5	1	early	em_task_pre	n/a	n/a	n/a	n/a	n/a
18.0	3.2079757899998995	1	early	em_task	n/a	n/a	n/a	n/a	46.1671081528127
21.2079757899999	0.75	1	early	em_task_post	n/a	n/a	n/a	n/a	n/a
28.0	1.5	2	late	stimulus	n/a	22.5	n/a	n/a	n/a
39.5	0.5	2	late	dm_task_pre	n/a	n/a	n/a	n/a	n/a
40.0	0.913878161999946	2	late	dm_task	0.913878161999946	n/a	0.0	1.0	n/a
40.913878161999946	0.75	2	late	dm_task_post	n/a	n/a	n/a	n/a	n/a
45.5	0.5	2	late	em_task_pre	n/a	n/a	n/a	n/a	n/a
46.0	2.6631164809999	2	late	em_task	n/a	n/a	n/a	n/a	28.397126953217
48.6631164809999	0.75	2	late	em_task_post	n/a	n/a	n/a	n/a	n/a
56.0	1.5	3	late	stimulus	n/a	0.0	n/a	n/a	n/a
67.5	0.5	3	late	dm_task_pre	n/a	n/a	n/a	n/a	n/a
68.0	1.5	3	late	dm_task	1.8374143399999	n/a	-21.0	1.0	n/a
69.5	0.75	3	late	dm_task_post	n/a	n/a	n/a	n/a	n/a
73.5	0.5	3	late	em_task_pre	n/a	n/a	n/a	n/a	n/a
74.0	2.102950702000001	3	late	em_task	n/a	n/a	n/a	n/a	179.322118614507
76.102950702	0.75	3	late	em_task_post	n/a	n/a	n/a	n/a	n/a
84.0	1.5	4	late	stimulus	n/a	67.5	n/a	n/a	n/a
95.5	0.5	4	late	dm_task_pre	n/a	n/a	n/a	n/a	n/a
96.0	0.580685879999919	4	late	dm_task	0.580685879999919	n/a	21.0	-1.0	n/a
96.58068587999992	0.75	4	late	dm_task_post	n/a	n/a	n/a	n/a	n/a
101.5	0.5	4	late	em_task_pre	n/a	n/a	n/a	n/a	n/a
102.0	3.0598554559999016	4	late	em_task	n/a	n/a	n/a	n/a	76.0122791581423
105.0598554559999	0.75	4	late	em_task_post	n/a	n/a	n/a	n/a	n/a
112.0	1.5	5	early	stimulus	n/a	97.5	n/a	n/a	n/a
117.5	0.5	5	early	dm_task_pre	n/a	n/a	n/a	n/a	n/a
118.0	0.670512250000002	5	early	dm_task	0.670512250000002	n/a	0.0	1.0	n/a
118.67051225	0.75	5	early	dm_task_post	n/a	n/a	n/a	n/a	n/a
129.5	0.5	5	early	em_task_pre	n/a	n/a	n/a	n/a	n/a
130.0	2.0491250289998995	5	early	em_task	n/a	n/a	n/a	n/a	95.9611533407432
132.0491250289999	0.75	5	early	em_task_post	n/a	n/a	n/a	n/a	n/a
140.0	1.5	6	late	stimulus	n/a	15.0	n/a	n/a	n/a
151.5	0.5	6	late	dm_task_pre	n/a	n/a	n/a	n/a	n/a
152.0	0.890278887000022	6	late	dm_task	0.890278887000022	n/a	0.0	1.0	n/a
152.89027888700002	0.75	6	late	dm_task_post	n/a	n/a	n/a	n/a	n/a
157.5	0.5	6	late	em_task_pre	n/a	n/a	n/a	n/a	n/a
158.0	3.3716299640000003	6	late	em_task	n/a	n/a	n/a	n/a	11.5386246599575
161.371629964	0.75	6	late	em_task_post	n/a	n/a	n/a	n/a	n/a
168.0	1.5	7	late	stimulus	n/a	142.5	n/a	n/a	n/a
179.5	0.5	7	late	dm_task_pre	n/a	n/a	n/a	n/a	n/a
180.0	0.71367121000003	7	late	dm_task	0.71367121000003	n/a	-4.0	1.0	n/a
180.71367121000003	0.75	7	late	dm_task_post	n/a	n/a	n/a	n/a	n/a
185.5	0.5	7	late	em_task_pre	n/a	n/a	n/a	n/a	n/a
186.0	3.8958630279999014	7	late	em_task	n/a	n/a	n/a	n/a	150.264093200791
189.8958630279999	0.75	7	late	em_task_post	n/a	n/a	n/a	n/a	n/a
196.0	1.5	8	early	stimulus	n/a	127.5	n/a	n/a	n/a
201.5	0.5	8	early	dm_task_pre	n/a	n/a	n/a	n/a	n/a
202.0	1.20634616400002	8	early	dm_task	1.20634616400002	n/a	-21.0	1.0	n/a
203.20634616400002	0.75	8	early	dm_task_post	n/a	n/a	n/a	n/a	n/a
213.5	0.5	8	early	em_task_pre	n/a	n/a	n/a	n/a	n/a
214.0	2.934924923999901	8	early	em_task	n/a	n/a	n/a	n/a	133.937525323313
216.93492492399992	0.75	8	early	em_task_post	n/a	n/a	n/a	n/a	n/a
224.0	1.5	9	early	stimulus	n/a	105.0	n/a	n/a	n/a
229.5	0.5	9	early	dm_task_pre	n/a	n/a	n/a	n/a	n/a
230.0	0.86276520499996	9	early	dm_task	0.86276520499996	n/a	-4.0	1.0	n/a
230.86276520499996	0.75	9	early	dm_task_post	n/a	n/a	n/a	n/a	n/a
241.5	0.5	9	early	em_task_pre	n/a	n/a	n/a	n/a	n/a
242.0	2.1762977049999996	9	early	em_task	n/a	n/a	n/a	n/a	104.298384774676
244.176297705	0.75	9	early	em_task_post	n/a	n/a	n/a	n/a	n/a
252.0	1.5	10	late	stimulus	n/a	165.0	n/a	n/a	n/a
263.5	0.5	10	late	dm_task_pre	n/a	n/a	n/a	n/a	n/a
264.0	0.467113114999847	10	late	dm_task	0.467113114999847	n/a	-21.0	1.0	n/a
264.46711311499985	0.75	10	late	dm_task_post	n/a	n/a	n/a	n/a	n/a
269.5	0.5	10	late	em_task_pre	n/a	n/a	n/a	n/a	n/a
270.0	3.397934228999901	10	late	em_task	n/a	n/a	n/a	n/a	149.920242005286
273.39793422899993	0.75	10	late	em_task_post	n/a	n/a	n/a	n/a	n/a
280.0	1.5	11	early	stimulus	n/a	75.0	n/a	n/a	n/a
285.5	0.5	11	early	dm_task_pre	n/a	n/a	n/a	n/a	n/a
286.0	0.542986700000029	11	early	dm_task	0.542986700000029	n/a	-21.0	1.0	n/a
286.54298670000003	0.75	11	early	dm_task_post	n/a	n/a	n/a	n/a	n/a
297.5	0.5	11	early	em_task_pre	n/a	n/a	n/a	n/a	n/a
298.0	2.8216606059999982	11	early	em_task	n/a	n/a	n/a	n/a	70.8540463665014
300.821660606	0.75	11	early	em_task_post	n/a	n/a	n/a	n/a	n/a
308.0	1.5	12	early	stimulus	n/a	90.0	n/a	n/a	n/a
313.5	0.5	12	early	dm_task_pre	n/a	n/a	n/a	n/a	n/a
314.0	1.06540476300006	12	early	dm_task	1.06540476300006	n/a	21.0	-1.0	n/a
315.06540476300006	0.75	12	early	dm_task_post	n/a	n/a	n/a	n/a	n/a
325.5	0.5	12	early	em_task_pre	n/a	n/a	n/a	n/a	n/a
326.0	2.7448166950001003	12	early	em_task	n/a	n/a	n/a	n/a	89.3200149782486
328.7448166950001	0.75	12	early	em_task_post	n/a	n/a	n/a	n/a	n/a
