onset	duration	trial	trial_type	event_type	response_time	value_stimulus	value_reference	response_decision	response_estimation
0.0	1.5	1	late	stimulus	n/a	127.5	n/a	n/a	n/a
11.5	0.5	1	late	dm_task_pre	n/a	n/a	n/a	n/a	n/a
12.0	0.674591204151511	1	late	dm_task	0.674591204151511	n/a	4.0	-1.0	n/a
12.674591204151511	0.75	1	late	dm_task_post	n/a	n/a	n/a	n/a	n/a
17.5	0.5	1	late	em_task_pre	n/a	n/a	n/a	n/a	n/a
18.0	2.4881124962121	1	late	em_task	n/a	n/a	n/a	n/a	119.758936300018
20.4881124962121	0.75	1	late	em_task_post	n/a	n/a	n/a	n/a	n/a
28.0	1.5	2	late	stimulus	n/a	60.0	n/a	n/a	n/a
39.5	0.5	2	late	dm_task_pre	n/a	n/a	n/a	n/a	n/a
40.0	0.848452839069068	2	late	dm_task	0.848452839069068	n/a	21.0	-1.0	n/a
40.84845283906907	0.75	2	late	dm_task_post	n/a	n/a	n/a	n/a	n/a
45.5	0.5	2	late	em_task_pre	n/a	n/a	n/a	n/a	n/a
46.0	2.3619253360666015	2	late	em_task	n/a	n/a	n/a	n/a	59.924839316964
48.361925336066605	0.75	2	late	em_task_post	n/a	n/a	n/a	n/a	n/a
56.0	1.5	3	early	stimulus	n/a	90.0	n/a	n/a	n/a
61.5	0.5	3	early	dm_task_pre	n/a	n/a	n/a	n/a	n/a
62.0	0.956790941301733	3	early	dm_task	0.956790941301733	n/a	4.0	-1.0	n/a
62.95679094130173	0.75	3	early	dm_task_post	n/a	n/a	n/a	n/a	n/a
73.5	0.5	3	early	em_task_pre	n/a	n/a	n/a	n/a	n/a
74.0	1.803194754291301	3	early	em_task	n/a	n/a	n/a	n/a	86.217526759837
75.8031947542913	0.75	3	early	em_task_post	n/a	n/a	n/a	n/a	n/a
84.0	1.5	4	late	stimulus	n/a	22.5	n/a	n/a	n/a
95.5	0.5	4	late	dm_task_pre	n/a	n/a	n/a	n/a	n/a
96.0	0.643632461316884	4	late	dm_task	0.643632461316884	n/a	-21.0	1.0	n/a
96.64363246131688	0.75	4	late	dm_task_post	n/a	n/a	n/a	n/a	n/a
101.5	0.5	4	late	em_task_pre	n/a	n/a	n/a	n/a	n/a
102.0	3.3755301232449995	4	late	em_task	n/a	n/a	n/a	n/a	31.20722611772
105.375530123245	0.75	4	late	em_task_post	n/a	n/a	n/a	n/a	n/a
112.0	1.5	5	early	stimulus	n/a	82.5	n/a	n/a	n/a
117.5	0.5	5	early	dm_task_pre	n/a	n/a	n/a	n/a	n/a
118.0	0.970241474919021	5	early	dm_task	0.970241474919021	n/a	4.0	-1.0	n/a
118.97024147491902	0.75	5	early	dm_task_post	n/a	n/a	n/a	n/a	n/a
129.5	0.5	5	early	em_task_pre	n/a	n/a	n/a	n/a	n/a
130.0	3.5976818283089003	5	early	em_task	n/a	n/a	n/a	n/a	84.0163283091789
133.5976818283089	0.75	5	early	em_task_post	n/a	n/a	n/a	n/a	n/a
140.0	1.5	6	late	stimulus	n/a	135.0	n/a	n/a	n/a
151.5	0.5	6	late	dm_task_pre	n/a	n/a	n/a	n/a	n/a
152.0	0.75849294802174	6	late	dm_task	0.75849294802174	n/a	-21.0	1.0	n/a
152.75849294802174	0.75	6	late	dm_task_post	n/a	n/a	n/a	n/a	n/a
157.5	0.5	6	late	em_task_pre	n/a	n/a	n/a	n/a	n/a
158.0	4.004914588294898	6	late	em_task	n/a	n/a	n/a	n/a	125.913678014205
162.0049145882949	0.75	6	late	em_task_post	n/a	n/a	n/a	n/a	n/a
168.0	1.5	7	early	stimulus	n/a	150.0	n/a	n/a	n/a
173.5	0.5	7	early	dm_task_pre	n/a	n/a	n/a	n/a	n/a
174.0	0.583420956041664	7	early	dm_task	0.583420956041664	n/a	21.0	-1.0	n/a
174.58342095604166	0.75	7	early	dm_task_post	n/a	n/a	n/a	n/a	n/a
185.5	0.5	7	early	em_task_pre	n/a	n/a	n/a	n/a	n/a
186.0	2.0942531810141993	7	early	em_task	n/a	n/a	n/a	n/a	151.422623352889
188.0942531810142	0.75	7	early	em_task_post	n/a	n/a	n/a	n/a	n/a
196.0	1.5	8	late	stimulus	n/a	30.0	n/a	n/a	n/a
207.5	0.5	8	late	dm_task_pre	n/a	n/a	n/a	n/a	n/a
208.0	0.719829630106688	8	late	dm_task	0.719829630106688	n/a	-21.0	1.0	n/a
208.7198296301067	0.75	8	late	dm_task_post	n/a	n/a	n/a	n/a	n/a
213.5	0.5	8	late	em_task_pre	n/a	n/a	n/a	n/a	n/a
214.0	2.5506454040295985	8	late	em_task	n/a	n/a	n/a	n/a	39.3398338784221
216.5506454040296	0.75	8	late	em_task_post	n/a	n/a	n/a	n/a	n/a
224.0	1.5	9	early	stimulus	n/a	142.5	n/a	n/a	n/a
229.5	0.5	9	early	dm_task_pre	n/a	n/a	n/a	n/a	n/a
230.0	1.04665182996541	9	early	dm_task	1.04665182996541	n/a	4.0	-1.0	n/a
231.0466518299654	0.75	9	early	dm_task_post	n/a	n/a	n/a	n/a	n/a
241.5	0.5	9	early	em_task_pre	n/a	n/a	n/a	n/a	n/a
242.0	2.273634783923601	9	early	em_task	n/a	n/a	n/a	n/a	150.663874640446
244.2736347839236	0.75	9	early	em_task_post	n/a	n/a	n/a	n/a	n/a
252.0	1.5	10	late	stimulus	n/a	165.0	n/a	n/a	n/a
263.5	0.5	10	late	dm_task_pre	n/a	n/a	n/a	n/a	n/a
264.0	1.03391661308706	10	late	dm_task	1.03391661308706	n/a	0.0	-1.0	n/a
265.03391661308706	0.75	10	late	dm_task_post	n/a	n/a	n/a	n/a	n/a
269.5	0.5	10	late	em_task_pre	n/a	n/a	n/a	n/a	n/a
270.0	2.747200337238599	10	late	em_task	n/a	n/a	n/a	n/a	151.066130553979
272.7472003372386	0.75	10	late	em_task_post	n/a	n/a	n/a	n/a	n/a
280.0	1.5	11	early	stimulus	n/a	172.5	n/a	n/a	n/a
285.5	0.5	11	early	dm_task_pre	n/a	n/a	n/a	n/a	n/a
286.0	0.641856614965945	11	early	dm_task	0.641856614965945	n/a	0.0	-1.0	n/a
286.64185661496595	0.75	11	early	dm_task_post	n/a	n/a	n/a	n/a	n/a
297.5	0.5	11	early	em_task_pre	n/a	n/a	n/a	n/a	n/a
298.0	2.437630981206901	11	early	em_task	n/a	n/a	n/a	n/a	162.698584479922
300.4376309812069	0.75	11	early	em_task_post	n/a	n/a	n/a	n/a	n/a
308.0	1.5	12	early	stimulus	n/a	52.5	n/a	n/a	n/a
313.5	0.5	12	early	dm_task_pre	n/a	n/a	n/a	n/a	n/a
314.0	0.714551656972617	12	early	dm_task	0.714551656972617	n/a	0.0	1.0	n/a
314.7145516569726	0.75	12	early	dm_task_post	n/a	n/a	n/a	n/a	n/a
325.5	0.5	12	early	em_task_pre	n/a	n/a	n/a	n/a	n/a
326.0	1.7107784543186	12	early	em_task	n/a	n/a	n/a	n/a	66.0466912944597
327.7107784543186	0.75	12	early	em_task_post	n/a	n/a	n/a	n/a	n/a
