onset	duration	trial	trial_type	event_type	response_time	value_stimulus	value_reference	response_decision	response_estimation
0.0	1.5	1	early	stimulus	n/a	127.5	n/a	n/a	n/a
5.5	0.5	1	early	dm_task_pre	n/a	n/a	n/a	n/a	n/a
6.0	0.689382737036794	1	early	dm_task	0.689382737036794	n/a	-4.0	1.0	n/a
6.689382737036794	0.75	1	early	dm_task_post	n/a	n/a	n/a	n/a	n/a
17.5	0.5	1	early	em_task_pre	n/a	n/a	n/a	n/a	n/a
18.0	3.3512090151197995	1	early	em_task	n/a	n/a	n/a	n/a	132.799694843155
21.3512090151198	0.75	1	early	em_task_post	n/a	n/a	n/a	n/a	n/a
28.0	1.5	2	late	stimulus	n/a	75.0	n/a	n/a	n/a
39.5	0.5	2	late	dm_task_pre	n/a	n/a	n/a	n/a	n/a
40.0	0.644912055227906	2	late	dm_task	0.644912055227906	n/a	-4.0	1.0	n/a
40.644912055227906	0.75	2	late	dm_task_post	n/a	n/a	n/a	n/a	n/a
45.5	0.5	2	late	em_task_pre	n/a	n/a	n/a	n/a	n/a
46.0	4.091835541184999	2	late	em_task	n/a	n/a	n/a	n/a	69.119559741612
50.091835541185	0.75	2	late	em_task_post	n/a	n/a	n/a	n/a	n/a
56.0	1.5	3	late	stimulus	n/a	7.5	n/a	n/a	n/a
67.5	0.5	3	late	dm_task_pre	n/a	n/a	n/a	n/a	n/a
68.0	1.31685128621757	3	late	dm_task	1.31685128621757	n/a	21.0	-1.0	n/a
69.31685128621757	0.75	3	late	dm_task_post	n/a	n/a	n/a	n/a	n/a
73.5	0.5	3	late	em_task_pre	n/a	n/a	n/a	n/a	n/a
74.0	3.4821521742269006	3	late	em_task	n/a	n/a	n/a	n/a	11.6838692755464
77.4821521742269	0.75	3	late	em_task_post	n/a	n/a	n/a	n/a	n/a
84.0	1.5	4	early	stimulus	n/a	30.0	n/a	n/a	n/a
89.5	0.5	4	early	dm_task_pre	n/a	n/a	n/a	n/a	n/a
90.0	0.81010439619422	4	early	dm_task	0.81010439619422	n/a	4.0	-1.0	n/a
90.81010439619422	0.75	4	early	dm_task_post	n/a	n/a	n/a	n/a	n/a
101.5	0.5	4	early	em_task_pre	n/a	n/a	n/a	n/a	n/a
102.0	1.8544520898722006	4	early	em_task	n/a	n/a	n/a	n/a	23.3399379598189
103.8544520898722	0.75	4	early	em_task_post	n/a	n/a	n/a	n/a	n/a
112.0	1.5	5	late	stimulus	n/a	172.5	n/a	n/a	n/a
123.5	0.5	5	late	dm_task_pre	n/a	n/a	n/a	n/a	n/a
124.0	0.630635214038193	5	late	dm_task	0.630635214038193	n/a	-21.0	1.0	n/a
124.6306352140382	0.75	5	late	dm_task_post	n/a	n/a	n/a	n/a	n/a
129.5	0.5	5	late	em_task_pre	n/a	n/a	n/a	n/a	n/a
130.0	2.2279474688693988	5	late	em_task	n/a	n/a	n/a	n/a	172.850929398625
132.2279474688694	0.75	5	late	em_task_post	n/a	n/a	n/a	n/a	n/a
140.0	1.5	6	early	stimulus	n/a	157.5	n/a	n/a	n/a
145.5	0.5	6	early	dm_task_pre	n/a	n/a	n/a	n/a	n/a
146.0	0.804994631092995	6	early	dm_task	0.804994631092995	n/a	21.0	-1.0	n/a
146.804994631093	0.75	6	early	dm_task_post	n/a	n/a	n/a	n/a	n/a
157.5	0.5	6	early	em_task_pre	n/a	n/a	n/a	n/a	n/a
158.0	3.316608422901499	6	early	em_task	n/a	n/a	n/a	n/a	158.539789751727
161.3166084229015	0.75	6	early	em_task_post	n/a	n/a	n/a	n/a	n/a
168.0	1.5	7	early	stimulus	n/a	22.5	n/a	n/a	n/a
173.5	0.5	7	early	dm_task_pre	n/a	n/a	n/a	n/a	n/a
174.0	0.845659841317683	7	early	dm_task	0.845659841317683	n/a	4.0	1.0	n/a
174.84565984131768	0.75	7	early	dm_task_post	n/a	n/a	n/a	n/a	n/a
185.5	0.5	7	early	em_task_pre	n/a	n/a	n/a	n/a	n/a
186.0	2.725011790171301	7	early	em_task	n/a	n/a	n/a	n/a	20.867118264752
188.7250117901713	0.75	7	early	em_task_post	n/a	n/a	n/a	n/a	n/a
196.0	1.5	8	early	stimulus	n/a	52.5	n/a	n/a	n/a
201.5	0.5	8	early	dm_task_pre	n/a	n/a	n/a	n/a	n/a
202.0	0.585219942033291	8	early	dm_task	0.585219942033291	n/a	21.0	-1.0	n/a
202.5852199420333	0.75	8	early	dm_task_post	n/a	n/a	n/a	n/a	n/a
213.5	0.5	8	early	em_task_pre	n/a	n/a	n/a	n/a	n/a
214.0	2.646951484959601	8	early	em_task	n/a	n/a	n/a	n/a	56.2654240475466
216.6469514849596	0.75	8	early	em_task_post	n/a	n/a	n/a	n/a	n/a
224.0	1.5	9	late	stimulus	n/a	150.0	n/a	n/a	n/a
235.5	0.5	9	late	dm_task_pre	n/a	n/a	n/a	n/a	n/a
236.0	0.7723392941989	9	late	dm_task	0.7723392941989	n/a	21.0	-1.0	n/a
236.7723392941989	0.75	9	late	dm_task_post	n/a	n/a	n/a	n/a	n/a
241.5	0.5	9	late	em_task_pre	n/a	n/a	n/a	n/a	n/a
242.0	3.4192697801627006	9	late	em_task	n/a	n/a	n/a	n/a	148.145207033755
245.4192697801627	0.75	9	late	em_task_post	n/a	n/a	n/a	n/a	n/a
252.0	1.5	10	early	stimulus	n/a	60.0	n/a	n/a	n/a
257.5	0.5	10	early	dm_task_pre	n/a	n/a	n/a	n/a	n/a
258.0	0.864916468970478	10	early	dm_task	0.864916468970478	n/a	21.0	-1.0	n/a
258.8649164689705	0.75	10	early	dm_task_post	n/a	n/a	n/a	n/a	n/a
269.5	0.5	10	early	em_task_pre	n/a	n/a	n/a	n/a	n/a
270.0	1.8095388482324992	10	early	em_task	n/a	n/a	n/a	n/a	46.8338555181025
271.8095388482325	0.75	10	early	em_task_post	n/a	n/a	n/a	n/a	n/a
280.0	1.5	11	early	stimulus	n/a	90.0	n/a	n/a	n/a
285.5	0.5	11	early	dm_task_pre	n/a	n/a	n/a	n/a	n/a
286.0	0.571512771304697	11	early	dm_task	0.571512771304697	n/a	-21.0	1.0	n/a
286.5715127713047	0.75	11	early	dm_task_post	n/a	n/a	n/a	n/a	n/a
297.5	0.5	11	early	em_task_pre	n/a	n/a	n/a	n/a	n/a
298.0	3.3500218261033012	11	early	em_task	n/a	n/a	n/a	n/a	92.1741706154292
301.35002182610333	0.75	11	early	em_task_post	n/a	n/a	n/a	n/a	n/a
308.0	1.5	12	late	stimulus	n/a	67.5	n/a	n/a	n/a
319.5	0.5	12	late	dm_task_pre	n/a	n/a	n/a	n/a	n/a
320.0	0.659200286027044	12	late	dm_task	0.659200286027044	n/a	0.0	1.0	n/a
320.65920028602704	0.75	12	late	dm_task_post	n/a	n/a	n/a	n/a	n/a
325.5	0.5	12	late	em_task_pre	n/a	n/a	n/a	n/a	n/a
326.0	1.8902803491800988	12	late	em_task	n/a	n/a	n/a	n/a	82.1731684047365
327.8902803491801	0.75	12	late	em_task_post	n/a	n/a	n/a	n/a	n/a
