onset	duration	trial	trial_type	event_type	response_time	value_stimulus	value_reference	response_decision	response_estimation
0.0	1.5	1	late	stimulus	n/a	45.0	n/a	n/a	n/a
11.5	0.5	1	late	dm_task_pre	n/a	n/a	n/a	n/a	n/a
12.0	0.770226306020049	1	late	dm_task	0.770226306020049	n/a	21.0	-1.0	n/a
12.77022630602005	0.75	1	late	dm_task_post	n/a	n/a	n/a	n/a	n/a
17.5	0.5	1	late	em_task_pre	n/a	n/a	n/a	n/a	n/a
18.0	2.3729112730069986	1	late	em_task	n/a	n/a	n/a	n/a	47.4909935180071
20.372911273007	0.75	1	late	em_task_post	n/a	n/a	n/a	n/a	n/a
28.0	1.5	2	late	stimulus	n/a	165.0	n/a	n/a	n/a
39.5	0.5	2	late	dm_task_pre	n/a	n/a	n/a	n/a	n/a
40.0	0.795488411007682	2	late	dm_task	0.795488411007682	n/a	-4.0	-1.0	n/a
40.79548841100768	0.75	2	late	dm_task_post	n/a	n/a	n/a	n/a	n/a
45.5	0.5	2	late	em_task_pre	n/a	n/a	n/a	n/a	n/a
46.0	2.2321597800183	2	late	em_task	n/a	n/a	n/a	n/a	153.900273216548
48.2321597800183	0.75	2	late	em_task_post	n/a	n/a	n/a	n/a	n/a
56.0	1.5	3	late	stimulus	n/a	37.5	n/a	n/a	n/a
67.5	0.5	3	late	dm_task_pre	n/a	n/a	n/a	n/a	n/a
68.0	0.521609140007058	3	late	dm_task	0.521609140007058	n/a	0.0	1.0	n/a
68.52160914000706	0.75	3	late	dm_task_post	n/a	n/a	n/a	n/a	n/a
73.5	0.5	3	late	em_task_pre	n/a	n/a	n/a	n/a	n/a
74.0	3.575451826007299	3	late	em_task	n/a	n/a	n/a	n/a	48.2562601592054
77.5754518260073	0.75	3	late	em_task_post	n/a	n/a	n/a	n/a	n/a
84.0	1.5	4	early	stimulus	n/a	15.0	n/a	n/a	n/a
89.5	0.5	4	early	dm_task_pre	n/a	n/a	n/a	n/a	n/a
90.0	0.363625258993125	4	early	dm_task	0.363625258993125	n/a	-21.0	1.0	n/a
90.36362525899312	0.75	4	early	dm_task_post	n/a	n/a	n/a	n/a	n/a
101.5	0.5	4	early	em_task_pre	n/a	n/a	n/a	n/a	n/a
102.0	3.384129482001299	4	early	em_task	n/a	n/a	n/a	n/a	29.6402927013967
105.3841294820013	0.75	4	early	em_task_post	n/a	n/a	n/a	n/a	n/a
112.0	1.5	5	early	stimulus	n/a	0.0	n/a	n/a	n/a
117.5	0.5	5	early	dm_task_pre	n/a	n/a	n/a	n/a	n/a
118.0	0.438218966999557	5	early	dm_task	0.438218966999557	n/a	-21.0	1.0	n/a
118.43821896699956	0.75	5	early	dm_task_post	n/a	n/a	n/a	n/a	n/a
129.5	0.5	5	early	em_task_pre	n/a	n/a	n/a	n/a	n/a
130.0	1.7589951110130997	5	early	em_task	n/a	n/a	n/a	n/a	18.8818531298534
131.7589951110131	0.75	5	early	em_task_post	n/a	n/a	n/a	n/a	n/a
140.0	1.5	6	early	stimulus	n/a	30.0	n/a	n/a	n/a
145.5	0.5	6	early	dm_task_pre	n/a	n/a	n/a	n/a	n/a
146.0	0.531550134997815	6	early	dm_task	0.531550134997815	n/a	4.0	-1.0	n/a
146.53155013499781	0.75	6	early	dm_task_post	n/a	n/a	n/a	n/a	n/a
157.5	0.5	6	early	em_task_pre	n/a	n/a	n/a	n/a	n/a
158.0	4.235934546013599	6	early	em_task	n/a	n/a	n/a	n/a	35.149388808817
162.2359345460136	0.75	6	early	em_task_post	n/a	n/a	n/a	n/a	n/a
168.0	1.5	7	early	stimulus	n/a	120.0	n/a	n/a	n/a
173.5	0.5	7	early	dm_task_pre	n/a	n/a	n/a	n/a	n/a
174.0	0.457333919010125	7	early	dm_task	0.457333919010125	n/a	21.0	-1.0	n/a
174.45733391901013	0.75	7	early	dm_task_post	n/a	n/a	n/a	n/a	n/a
185.5	0.5	7	early	em_task_pre	n/a	n/a	n/a	n/a	n/a
186.0	2.0605792379937995	7	early	em_task	n/a	n/a	n/a	n/a	123.729912184766
188.0605792379938	0.75	7	early	em_task_post	n/a	n/a	n/a	n/a	n/a
196.0	1.5	8	early	stimulus	n/a	172.5	n/a	n/a	n/a
201.5	0.5	8	early	dm_task_pre	n/a	n/a	n/a	n/a	n/a
202.0	0.899810858012643	8	early	dm_task	0.899810858012643	n/a	-4.0	-1.0	n/a
202.89981085801264	0.75	8	early	dm_task_post	n/a	n/a	n/a	n/a	n/a
213.5	0.5	8	early	em_task_pre	n/a	n/a	n/a	n/a	n/a
214.0	2.2544512099993987	8	early	em_task	n/a	n/a	n/a	n/a	146.276294866151
216.2544512099994	0.75	8	early	em_task_post	n/a	n/a	n/a	n/a	n/a
224.0	1.5	9	late	stimulus	n/a	150.0	n/a	n/a	n/a
235.5	0.5	9	late	dm_task_pre	n/a	n/a	n/a	n/a	n/a
236.0	0.443129982013488	9	late	dm_task	0.443129982013488	n/a	21.0	-1.0	n/a
236.4431299820135	0.75	9	late	dm_task_post	n/a	n/a	n/a	n/a	n/a
241.5	0.5	9	late	em_task_pre	n/a	n/a	n/a	n/a	n/a
242.0	2.9459394699951993	9	late	em_task	n/a	n/a	n/a	n/a	141.912397726524
244.9459394699952	0.75	9	late	em_task_post	n/a	n/a	n/a	n/a	n/a
252.0	1.5	10	early	stimulus	n/a	127.5	n/a	n/a	n/a
257.5	0.5	10	early	dm_task_pre	n/a	n/a	n/a	n/a	n/a
258.0	0.834809643012704	10	early	dm_task	0.834809643012704	n/a	-4.0	-1.0	n/a
258.8348096430127	0.75	10	early	dm_task_post	n/a	n/a	n/a	n/a	n/a
269.5	0.5	10	early	em_task_pre	n/a	n/a	n/a	n/a	n/a
270.0	4.5	10	early	em_task	n/a	n/a	n/a	n/a	n/a
274.5	0.75	10	early	em_task_post	n/a	n/a	n/a	n/a	n/a
280.0	1.5	11	early	stimulus	n/a	75.0	n/a	n/a	n/a
285.5	0.5	11	early	dm_task_pre	n/a	n/a	n/a	n/a	n/a
286.0	0.758685937995324	11	early	dm_task	0.758685937995324	n/a	-4.0	-1.0	n/a
286.7586859379953	0.75	11	early	dm_task_post	n/a	n/a	n/a	n/a	n/a
297.5	0.5	11	early	em_task_pre	n/a	n/a	n/a	n/a	n/a
298.0	1.3646507350204011	11	early	em_task	n/a	n/a	n/a	n/a	72.9507359182556
299.3646507350204	0.75	11	early	em_task_post	n/a	n/a	n/a	n/a	n/a
308.0	1.5	12	early	stimulus	n/a	52.5	n/a	n/a	n/a
313.5	0.5	12	early	dm_task_pre	n/a	n/a	n/a	n/a	n/a
314.0	0.502621207007905	12	early	dm_task	0.502621207007905	n/a	-4.0	1.0	n/a
314.5026212070079	0.75	12	early	dm_task_post	n/a	n/a	n/a	n/a	n/a
325.5	0.5	12	early	em_task_pre	n/a	n/a	n/a	n/a	n/a
326.0	2.9404627540207002	12	early	em_task	n/a	n/a	n/a	n/a	57.0508028331401
328.9404627540207	0.75	12	early	em_task_post	n/a	n/a	n/a	n/a	n/a
