onset	duration	trial	trial_type	event_type	response_time	value_stimulus	value_reference	response_decision	response_estimation
0.0	1.5	1	late	stimulus	n/a	157.5	n/a	n/a	n/a
11.5	0.5	1	late	dm_task_pre	n/a	n/a	n/a	n/a	n/a
12.0	0.64346085499983	1	late	dm_task	0.64346085499983	n/a	21.0	-1.0	n/a
12.64346085499983	0.75	1	late	dm_task_post	n/a	n/a	n/a	n/a	n/a
17.5	0.5	1	late	em_task_pre	n/a	n/a	n/a	n/a	n/a
18.0	3.5754086029999	1	late	em_task	n/a	n/a	n/a	n/a	152.965609897495
21.5754086029999	0.75	1	late	em_task_post	n/a	n/a	n/a	n/a	n/a
28.0	1.5	2	late	stimulus	n/a	37.5	n/a	n/a	n/a
39.5	0.5	2	late	dm_task_pre	n/a	n/a	n/a	n/a	n/a
40.0	0.747935935999976	2	late	dm_task	0.747935935999976	n/a	0.0	1.0	n/a
40.747935935999976	0.75	2	late	dm_task_post	n/a	n/a	n/a	n/a	n/a
45.5	0.5	2	late	em_task_pre	n/a	n/a	n/a	n/a	n/a
46.0	3.712052002999801	2	late	em_task	n/a	n/a	n/a	n/a	35.4507750518603
49.7120520029998	0.75	2	late	em_task_post	n/a	n/a	n/a	n/a	n/a
56.0	1.5	3	late	stimulus	n/a	150.0	n/a	n/a	n/a
67.5	0.5	3	late	dm_task_pre	n/a	n/a	n/a	n/a	n/a
68.0	0.837101093000001	3	late	dm_task	0.837101093000001	n/a	-21.0	1.0	n/a
68.837101093	0.75	3	late	dm_task_post	n/a	n/a	n/a	n/a	n/a
73.5	0.5	3	late	em_task_pre	n/a	n/a	n/a	n/a	n/a
74.0	4.382601307999899	3	late	em_task	n/a	n/a	n/a	n/a	153.306064955526
78.38260130799989	0.75	3	late	em_task_post	n/a	n/a	n/a	n/a	n/a
84.0	1.5	4	late	stimulus	n/a	30.0	n/a	n/a	n/a
95.5	0.5	4	late	dm_task_pre	n/a	n/a	n/a	n/a	n/a
96.0	0.707382400999904	4	late	dm_task	0.707382400999904	n/a	-4.0	1.0	n/a
96.7073824009999	0.75	4	late	dm_task_post	n/a	n/a	n/a	n/a	n/a
101.5	0.5	4	late	em_task_pre	n/a	n/a	n/a	n/a	n/a
102.0	4.5	4	late	em_task	n/a	n/a	n/a	n/a	n/a
106.5	0.75	4	late	em_task_post	n/a	n/a	n/a	n/a	n/a
112.0	1.5	5	late	stimulus	n/a	67.5	n/a	n/a	n/a
123.5	0.5	5	late	dm_task_pre	n/a	n/a	n/a	n/a	n/a
124.0	0.711214274999975	5	late	dm_task	0.711214274999975	n/a	0.0	1.0	n/a
124.71121427499997	0.75	5	late	dm_task_post	n/a	n/a	n/a	n/a	n/a
129.5	0.5	5	late	em_task_pre	n/a	n/a	n/a	n/a	n/a
130.0	1.4641351089999013	5	late	em_task	n/a	n/a	n/a	n/a	64.6496338110821
131.4641351089999	0.75	5	late	em_task_post	n/a	n/a	n/a	n/a	n/a
140.0	1.5	6	early	stimulus	n/a	15.0	n/a	n/a	n/a
145.5	0.5	6	early	dm_task_pre	n/a	n/a	n/a	n/a	n/a
146.0	0.83994956399988	6	early	dm_task	0.83994956399988	n/a	-21.0	1.0	n/a
146.83994956399988	0.75	6	early	dm_task_post	n/a	n/a	n/a	n/a	n/a
157.5	0.5	6	early	em_task_pre	n/a	n/a	n/a	n/a	n/a
158.0	2.6877489479998005	6	early	em_task	n/a	n/a	n/a	n/a	15.4753206855544
160.6877489479998	0.75	6	early	em_task_post	n/a	n/a	n/a	n/a	n/a
168.0	1.5	7	early	stimulus	n/a	112.5	n/a	n/a	n/a
173.5	0.5	7	early	dm_task_pre	n/a	n/a	n/a	n/a	n/a
174.0	0.70869542499986	7	early	dm_task	0.70869542499986	n/a	21.0	-1.0	n/a
174.70869542499986	0.75	7	early	dm_task_post	n/a	n/a	n/a	n/a	n/a
185.5	0.5	7	early	em_task_pre	n/a	n/a	n/a	n/a	n/a
186.0	2.4172762409999002	7	early	em_task	n/a	n/a	n/a	n/a	101.683200941109
188.4172762409999	0.75	7	early	em_task_post	n/a	n/a	n/a	n/a	n/a
196.0	1.5	8	late	stimulus	n/a	165.0	n/a	n/a	n/a
207.5	0.5	8	late	dm_task_pre	n/a	n/a	n/a	n/a	n/a
208.0	1.10666875499987	8	late	dm_task	1.10666875499987	n/a	-4.0	-1.0	n/a
209.10666875499987	0.75	8	late	dm_task_post	n/a	n/a	n/a	n/a	n/a
213.5	0.5	8	late	em_task_pre	n/a	n/a	n/a	n/a	n/a
214.0	3.670347133	8	late	em_task	n/a	n/a	n/a	n/a	152.771741290968
217.670347133	0.75	8	late	em_task_post	n/a	n/a	n/a	n/a	n/a
224.0	1.5	9	early	stimulus	n/a	172.5	n/a	n/a	n/a
229.5	0.5	9	early	dm_task_pre	n/a	n/a	n/a	n/a	n/a
230.0	0.634462878999784	9	early	dm_task	0.634462878999784	n/a	-21.0	1.0	n/a
230.63446287899978	0.75	9	early	dm_task_post	n/a	n/a	n/a	n/a	n/a
241.5	0.5	9	early	em_task_pre	n/a	n/a	n/a	n/a	n/a
242.0	2.145868499999999	9	early	em_task	n/a	n/a	n/a	n/a	158.902466578688
244.1458685	0.75	9	early	em_task_post	n/a	n/a	n/a	n/a	n/a
252.0	1.5	10	early	stimulus	n/a	90.0	n/a	n/a	n/a
257.5	0.5	10	early	dm_task_pre	n/a	n/a	n/a	n/a	n/a
258.0	0.718307668999842	10	early	dm_task	0.718307668999842	n/a	4.0	-1.0	n/a
258.71830766899984	0.75	10	early	dm_task_post	n/a	n/a	n/a	n/a	n/a
269.5	0.5	10	early	em_task_pre	n/a	n/a	n/a	n/a	n/a
270.0	2.1131690579998015	10	early	em_task	n/a	n/a	n/a	n/a	77.9612310615928
272.1131690579998	0.75	10	early	em_task_post	n/a	n/a	n/a	n/a	n/a
280.0	1.5	11	early	stimulus	n/a	22.5	n/a	n/a	n/a
285.5	0.5	11	early	dm_task_pre	n/a	n/a	n/a	n/a	n/a
286.0	0.681741154999827	11	early	dm_task	0.681741154999827	n/a	-4.0	1.0	n/a
286.6817411549998	0.75	11	early	dm_task_post	n/a	n/a	n/a	n/a	n/a
297.5	0.5	11	early	em_task_pre	n/a	n/a	n/a	n/a	n/a
298.0	3.416868807999901	11	early	em_task	n/a	n/a	n/a	n/a	24.8200847864933
301.4168688079999	0.75	11	early	em_task_post	n/a	n/a	n/a	n/a	n/a
308.0	1.5	12	late	stimulus	n/a	60.0	n/a	n/a	n/a
319.5	0.5	12	late	dm_task_pre	n/a	n/a	n/a	n/a	n/a
320.0	0.844946505999815	12	late	dm_task	0.844946505999815	n/a	0.0	1.0	n/a
320.8449465059998	0.75	12	late	dm_task_post	n/a	n/a	n/a	n/a	n/a
325.5	0.5	12	late	em_task_pre	n/a	n/a	n/a	n/a	n/a
326.0	2.5211414929999982	12	late	em_task	n/a	n/a	n/a	n/a	61.6074358993775
328.521141493	0.75	12	late	em_task_post	n/a	n/a	n/a	n/a	n/a
