onset	duration	trial	trial_type	event_type	response_time	value_stimulus	value_reference	response_decision	response_estimation
0.0	1.5	1	early	stimulus	n/a	60.0	n/a	n/a	n/a
5.5	0.5	1	early	dm_task_pre	n/a	n/a	n/a	n/a	n/a
6.0	0.908136166999611	1	early	dm_task	0.908136166999611	n/a	0.0	1.0	n/a
6.908136166999611	0.75	1	early	dm_task_post	n/a	n/a	n/a	n/a	n/a
17.5	0.5	1	early	em_task_pre	n/a	n/a	n/a	n/a	n/a
18.0	2.517948656997799	1	early	em_task	n/a	n/a	n/a	n/a	71.9816915031339
20.5179486569978	0.75	1	early	em_task_post	n/a	n/a	n/a	n/a	n/a
28.0	1.5	2	early	stimulus	n/a	52.5	n/a	n/a	n/a
33.5	0.5	2	early	dm_task_pre	n/a	n/a	n/a	n/a	n/a
34.0	0.666124143997877	2	early	dm_task	0.666124143997877	n/a	-21.0	1.0	n/a
34.66612414399788	0.75	2	early	dm_task_post	n/a	n/a	n/a	n/a	n/a
45.5	0.5	2	early	em_task_pre	n/a	n/a	n/a	n/a	n/a
46.0	2.5942582940006	2	early	em_task	n/a	n/a	n/a	n/a	61.4783440723169
48.594258294000596	0.75	2	early	em_task_post	n/a	n/a	n/a	n/a	n/a
56.0	1.5	3	late	stimulus	n/a	97.5	n/a	n/a	n/a
67.5	0.5	3	late	dm_task_pre	n/a	n/a	n/a	n/a	n/a
68.0	0.655866543998854	3	late	dm_task	0.655866543998854	n/a	21.0	-1.0	n/a
68.65586654399885	0.75	3	late	dm_task_post	n/a	n/a	n/a	n/a	n/a
73.5	0.5	3	late	em_task_pre	n/a	n/a	n/a	n/a	n/a
74.0	2.3021241979986016	3	late	em_task	n/a	n/a	n/a	n/a	103.213406309927
76.30212419799861	0.75	3	late	em_task_post	n/a	n/a	n/a	n/a	n/a
84.0	1.5	4	late	stimulus	n/a	105.0	n/a	n/a	n/a
95.5	0.5	4	late	dm_task_pre	n/a	n/a	n/a	n/a	n/a
96.0	0.880181037999137	4	late	dm_task	0.880181037999137	n/a	21.0	-1.0	n/a
96.88018103799914	0.75	4	late	dm_task_post	n/a	n/a	n/a	n/a	n/a
101.5	0.5	4	late	em_task_pre	n/a	n/a	n/a	n/a	n/a
102.0	3.1927709179981	4	late	em_task	n/a	n/a	n/a	n/a	111.777912074313
105.1927709179981	0.75	4	late	em_task_post	n/a	n/a	n/a	n/a	n/a
112.0	1.5	5	late	stimulus	n/a	112.5	n/a	n/a	n/a
123.5	0.5	5	late	dm_task_pre	n/a	n/a	n/a	n/a	n/a
124.0	0.887896804997581	5	late	dm_task	0.887896804997581	n/a	0.0	-1.0	n/a
124.88789680499758	0.75	5	late	dm_task_post	n/a	n/a	n/a	n/a	n/a
129.5	0.5	5	late	em_task_pre	n/a	n/a	n/a	n/a	n/a
130.0	2.5345195519984998	5	late	em_task	n/a	n/a	n/a	n/a	106.941220882722
132.5345195519985	0.75	5	late	em_task_post	n/a	n/a	n/a	n/a	n/a
140.0	1.5	6	late	stimulus	n/a	90.0	n/a	n/a	n/a
151.5	0.5	6	late	dm_task_pre	n/a	n/a	n/a	n/a	n/a
152.0	0.746188225999504	6	late	dm_task	0.746188225999504	n/a	4.0	-1.0	n/a
152.7461882259995	0.75	6	late	dm_task_post	n/a	n/a	n/a	n/a	n/a
157.5	0.5	6	late	em_task_pre	n/a	n/a	n/a	n/a	n/a
158.0	3.625261789999101	6	late	em_task	n/a	n/a	n/a	n/a	82.8392983211754
161.62526178999912	0.75	6	late	em_task_post	n/a	n/a	n/a	n/a	n/a
168.0	1.5	7	late	stimulus	n/a	30.0	n/a	n/a	n/a
179.5	0.5	7	late	dm_task_pre	n/a	n/a	n/a	n/a	n/a
180.0	0.727597910998156	7	late	dm_task	0.727597910998156	n/a	-21.0	1.0	n/a
180.72759791099816	0.75	7	late	dm_task_post	n/a	n/a	n/a	n/a	n/a
185.5	0.5	7	late	em_task_pre	n/a	n/a	n/a	n/a	n/a
186.0	3.616389255999799	7	late	em_task	n/a	n/a	n/a	n/a	35.6055269703968
189.6163892559998	0.75	7	late	em_task_post	n/a	n/a	n/a	n/a	n/a
196.0	1.5	8	early	stimulus	n/a	82.5	n/a	n/a	n/a
201.5	0.5	8	early	dm_task_pre	n/a	n/a	n/a	n/a	n/a
202.0	0.863886217997788	8	early	dm_task	0.863886217997788	n/a	-4.0	1.0	n/a
202.8638862179978	0.75	8	early	dm_task_post	n/a	n/a	n/a	n/a	n/a
213.5	0.5	8	early	em_task_pre	n/a	n/a	n/a	n/a	n/a
214.0	1.9252108699983985	8	early	em_task	n/a	n/a	n/a	n/a	80.0184663833506
215.9252108699984	0.75	8	early	em_task_post	n/a	n/a	n/a	n/a	n/a
224.0	1.5	9	late	stimulus	n/a	45.0	n/a	n/a	n/a
235.5	0.5	9	late	dm_task_pre	n/a	n/a	n/a	n/a	n/a
236.0	0.83670237899787	9	late	dm_task	0.83670237899787	n/a	-4.0	1.0	n/a
236.83670237899787	0.75	9	late	dm_task_post	n/a	n/a	n/a	n/a	n/a
241.5	0.5	9	late	em_task_pre	n/a	n/a	n/a	n/a	n/a
242.0	2.2996227660004998	9	late	em_task	n/a	n/a	n/a	n/a	47.4359375802184
244.2996227660005	0.75	9	late	em_task_post	n/a	n/a	n/a	n/a	n/a
252.0	1.5	10	late	stimulus	n/a	0.0	n/a	n/a	n/a
263.5	0.5	10	late	dm_task_pre	n/a	n/a	n/a	n/a	n/a
264.0	0.69410106199939	10	late	dm_task	0.69410106199939	n/a	-4.0	1.0	n/a
264.6941010619994	0.75	10	late	dm_task_post	n/a	n/a	n/a	n/a	n/a
269.5	0.5	10	late	em_task_pre	n/a	n/a	n/a	n/a	n/a
270.0	3.395623798998699	10	late	em_task	n/a	n/a	n/a	n/a	3.46685170529661
273.3956237989987	0.75	10	late	em_task_post	n/a	n/a	n/a	n/a	n/a
280.0	1.5	11	late	stimulus	n/a	142.5	n/a	n/a	n/a
291.5	0.5	11	late	dm_task_pre	n/a	n/a	n/a	n/a	n/a
292.0	0.585077380997973	11	late	dm_task	0.585077380997973	n/a	-21.0	1.0	n/a
292.585077380998	0.75	11	late	dm_task_post	n/a	n/a	n/a	n/a	n/a
297.5	0.5	11	late	em_task_pre	n/a	n/a	n/a	n/a	n/a
298.0	2.815408571997999	11	late	em_task	n/a	n/a	n/a	n/a	144.768423593906
300.815408571998	0.75	11	late	em_task_post	n/a	n/a	n/a	n/a	n/a
308.0	1.5	12	late	stimulus	n/a	37.5	n/a	n/a	n/a
319.5	0.5	12	late	dm_task_pre	n/a	n/a	n/a	n/a	n/a
320.0	0.610651585000596	12	late	dm_task	0.610651585000596	n/a	21.0	-1.0	n/a
320.6106515850006	0.75	12	late	dm_task_post	n/a	n/a	n/a	n/a	n/a
325.5	0.5	12	late	em_task_pre	n/a	n/a	n/a	n/a	n/a
326.0	2.922612634	12	late	em_task	n/a	n/a	n/a	n/a	34.0711421626106
328.922612634	0.75	12	late	em_task_post	n/a	n/a	n/a	n/a	n/a
