onset	duration	trial	trial_type	event_type	response_time	value_stimulus	value_reference	response_decision	response_estimation
0.0	1.5	1	early	stimulus	n/a	90.0	n/a	n/a	n/a
5.5	0.5	1	early	dm_task_pre	n/a	n/a	n/a	n/a	n/a
6.0	1.5	1	early	dm_task	1.66994692000299	n/a	0.0	1.0	n/a
7.5	0.75	1	early	dm_task_post	n/a	n/a	n/a	n/a	n/a
17.5	0.5	1	early	em_task_pre	n/a	n/a	n/a	n/a	n/a
18.0	3.5000585570014984	1	early	em_task	n/a	n/a	n/a	n/a	91.3072443645007
21.5000585570015	0.75	1	early	em_task_post	n/a	n/a	n/a	n/a	n/a
28.0	1.5	2	late	stimulus	n/a	37.5	n/a	n/a	n/a
39.5	0.5	2	late	dm_task_pre	n/a	n/a	n/a	n/a	n/a
40.0	1.00928583500354	2	late	dm_task	1.00928583500354	n/a	0.0	-1.0	n/a
41.00928583500354	0.75	2	late	dm_task_post	n/a	n/a	n/a	n/a	n/a
45.5	0.5	2	late	em_task_pre	n/a	n/a	n/a	n/a	n/a
46.0	3.7049256180035	2	late	em_task	n/a	n/a	n/a	n/a	38.7424151747033
49.7049256180035	0.75	2	late	em_task_post	n/a	n/a	n/a	n/a	n/a
56.0	1.5	3	early	stimulus	n/a	22.5	n/a	n/a	n/a
61.5	0.5	3	early	dm_task_pre	n/a	n/a	n/a	n/a	n/a
62.0	0.601809357001912	3	early	dm_task	0.601809357001912	n/a	-4.0	1.0	n/a
62.60180935700191	0.75	3	early	dm_task_post	n/a	n/a	n/a	n/a	n/a
73.5	0.5	3	early	em_task_pre	n/a	n/a	n/a	n/a	n/a
74.0	2.846194048004701	3	early	em_task	n/a	n/a	n/a	n/a	20.1868071309505
76.8461940480047	0.75	3	early	em_task_post	n/a	n/a	n/a	n/a	n/a
84.0	1.5	4	late	stimulus	n/a	15.0	n/a	n/a	n/a
95.5	0.5	4	late	dm_task_pre	n/a	n/a	n/a	n/a	n/a
96.0	0.404393689001154	4	late	dm_task	0.404393689001154	n/a	-21.0	1.0	n/a
96.40439368900115	0.75	4	late	dm_task_post	n/a	n/a	n/a	n/a	n/a
101.5	0.5	4	late	em_task_pre	n/a	n/a	n/a	n/a	n/a
102.0	3.5189112360022	4	late	em_task	n/a	n/a	n/a	n/a	24.4228246163883
105.5189112360022	0.75	4	late	em_task_post	n/a	n/a	n/a	n/a	n/a
112.0	1.5	5	early	stimulus	n/a	30.0	n/a	n/a	n/a
117.5	0.5	5	early	dm_task_pre	n/a	n/a	n/a	n/a	n/a
118.0	0.946619143003772	5	early	dm_task	0.946619143003772	n/a	0.0	-1.0	n/a
118.94661914300377	0.75	5	early	dm_task_post	n/a	n/a	n/a	n/a	n/a
129.5	0.5	5	early	em_task_pre	n/a	n/a	n/a	n/a	n/a
130.0	3.6763603370055016	5	early	em_task	n/a	n/a	n/a	n/a	24.1079124006736
133.6763603370055	0.75	5	early	em_task_post	n/a	n/a	n/a	n/a	n/a
140.0	1.5	6	late	stimulus	n/a	112.5	n/a	n/a	n/a
151.5	0.5	6	late	dm_task_pre	n/a	n/a	n/a	n/a	n/a
152.0	0.485255191000761	6	late	dm_task	0.485255191000761	n/a	-21.0	1.0	n/a
152.48525519100076	0.75	6	late	dm_task_post	n/a	n/a	n/a	n/a	n/a
157.5	0.5	6	late	em_task_pre	n/a	n/a	n/a	n/a	n/a
158.0	1.7487390669993985	6	late	em_task	n/a	n/a	n/a	n/a	118.635750788931
159.7487390669994	0.75	6	late	em_task_post	n/a	n/a	n/a	n/a	n/a
168.0	1.5	7	late	stimulus	n/a	120.0	n/a	n/a	n/a
179.5	0.5	7	late	dm_task_pre	n/a	n/a	n/a	n/a	n/a
180.0	0.574793871004658	7	late	dm_task	0.574793871004658	n/a	4.0	-1.0	n/a
180.57479387100466	0.75	7	late	dm_task_post	n/a	n/a	n/a	n/a	n/a
185.5	0.5	7	late	em_task_pre	n/a	n/a	n/a	n/a	n/a
186.0	1.9393179370017997	7	late	em_task	n/a	n/a	n/a	n/a	106.736674302929
187.9393179370018	0.75	7	late	em_task_post	n/a	n/a	n/a	n/a	n/a
196.0	1.5	8	late	stimulus	n/a	165.0	n/a	n/a	n/a
207.5	0.5	8	late	dm_task_pre	n/a	n/a	n/a	n/a	n/a
208.0	0.498428453000088	8	late	dm_task	0.498428453000088	n/a	4.0	-1.0	n/a
208.4984284530001	0.75	8	late	dm_task_post	n/a	n/a	n/a	n/a	n/a
213.5	0.5	8	late	em_task_pre	n/a	n/a	n/a	n/a	n/a
214.0	2.6785544710001012	8	late	em_task	n/a	n/a	n/a	n/a	159.338203648098
216.6785544710001	0.75	8	late	em_task_post	n/a	n/a	n/a	n/a	n/a
224.0	1.5	9	early	stimulus	n/a	105.0	n/a	n/a	n/a
229.5	0.5	9	early	dm_task_pre	n/a	n/a	n/a	n/a	n/a
230.0	0.556335703004152	9	early	dm_task	0.556335703004152	n/a	-4.0	1.0	n/a
230.55633570300415	0.75	9	early	dm_task_post	n/a	n/a	n/a	n/a	n/a
241.5	0.5	9	early	em_task_pre	n/a	n/a	n/a	n/a	n/a
242.0	1.9021406090033004	9	early	em_task	n/a	n/a	n/a	n/a	110.369076523039
243.9021406090033	0.75	9	early	em_task_post	n/a	n/a	n/a	n/a	n/a
252.0	1.5	10	early	stimulus	n/a	135.0	n/a	n/a	n/a
257.5	0.5	10	early	dm_task_pre	n/a	n/a	n/a	n/a	n/a
258.0	0.446743437001714	10	early	dm_task	0.446743437001714	n/a	21.0	-1.0	n/a
258.4467434370017	0.75	10	early	dm_task_post	n/a	n/a	n/a	n/a	n/a
269.5	0.5	10	early	em_task_pre	n/a	n/a	n/a	n/a	n/a
270.0	2.690900223999101	10	early	em_task	n/a	n/a	n/a	n/a	129.325684513414
272.6909002239991	0.75	10	early	em_task_post	n/a	n/a	n/a	n/a	n/a
280.0	1.5	11	late	stimulus	n/a	45.0	n/a	n/a	n/a
291.5	0.5	11	late	dm_task_pre	n/a	n/a	n/a	n/a	n/a
292.0	0.516581681004027	11	late	dm_task	0.516581681004027	n/a	-4.0	1.0	n/a
292.516581681004	0.75	11	late	dm_task_post	n/a	n/a	n/a	n/a	n/a
297.5	0.5	11	late	em_task_pre	n/a	n/a	n/a	n/a	n/a
298.0	3.7148484740027996	11	late	em_task	n/a	n/a	n/a	n/a	43.3003074458228
301.7148484740028	0.75	11	late	em_task_post	n/a	n/a	n/a	n/a	n/a
308.0	1.5	12	early	stimulus	n/a	82.5	n/a	n/a	n/a
313.5	0.5	12	early	dm_task_pre	n/a	n/a	n/a	n/a	n/a
314.0	0.459560437004257	12	early	dm_task	0.459560437004257	n/a	4.0	-1.0	n/a
314.45956043700426	0.75	12	early	dm_task_post	n/a	n/a	n/a	n/a	n/a
325.5	0.5	12	early	em_task_pre	n/a	n/a	n/a	n/a	n/a
326.0	2.5545564140048	12	early	em_task	n/a	n/a	n/a	n/a	64.958544331044
328.5545564140048	0.75	12	early	em_task_post	n/a	n/a	n/a	n/a	n/a
