onset	duration	trial	trial_type	event_type	response_time	value_stimulus	value_reference	response_decision	response_estimation
0.0	1.5	1	early	stimulus	n/a	97.5	n/a	n/a	n/a
5.5	0.5	1	early	dm_task_pre	n/a	n/a	n/a	n/a	n/a
6.0	0.933258457109332	1	early	dm_task	0.933258457109332	n/a	-21.0	1.0	n/a
6.933258457109332	0.75	1	early	dm_task_post	n/a	n/a	n/a	n/a	n/a
17.5	0.5	1	early	em_task_pre	n/a	n/a	n/a	n/a	n/a
18.0	3.2617905731313	1	early	em_task	n/a	n/a	n/a	n/a	91.9882159811293
21.2617905731313	0.75	1	early	em_task_post	n/a	n/a	n/a	n/a	n/a
28.0	1.5	2	early	stimulus	n/a	105.0	n/a	n/a	n/a
33.5	0.5	2	early	dm_task_pre	n/a	n/a	n/a	n/a	n/a
34.0	0.889753970317543	2	early	dm_task	0.889753970317543	n/a	-21.0	1.0	n/a
34.88975397031754	0.75	2	early	dm_task_post	n/a	n/a	n/a	n/a	n/a
45.5	0.5	2	early	em_task_pre	n/a	n/a	n/a	n/a	n/a
46.0	1.8514166614041017	2	early	em_task	n/a	n/a	n/a	n/a	96.4843724808364
47.8514166614041	0.75	2	early	em_task_post	n/a	n/a	n/a	n/a	n/a
56.0	1.5	3	late	stimulus	n/a	120.0	n/a	n/a	n/a
67.5	0.5	3	late	dm_task_pre	n/a	n/a	n/a	n/a	n/a
68.0	1.01077156420797	3	late	dm_task	1.01077156420797	n/a	-21.0	1.0	n/a
69.01077156420797	0.75	3	late	dm_task_post	n/a	n/a	n/a	n/a	n/a
73.5	0.5	3	late	em_task_pre	n/a	n/a	n/a	n/a	n/a
74.0	1.8910425594077012	3	late	em_task	n/a	n/a	n/a	n/a	111.657234692792
75.89104255940771	0.75	3	late	em_task_post	n/a	n/a	n/a	n/a	n/a
84.0	1.5	4	early	stimulus	n/a	45.0	n/a	n/a	n/a
89.5	0.5	4	early	dm_task_pre	n/a	n/a	n/a	n/a	n/a
90.0	1.33500346541405	4	early	dm_task	1.33500346541405	n/a	4.0	1.0	n/a
91.33500346541405	0.75	4	early	dm_task_post	n/a	n/a	n/a	n/a	n/a
101.5	0.5	4	early	em_task_pre	n/a	n/a	n/a	n/a	n/a
102.0	3.2151147690602	4	early	em_task	n/a	n/a	n/a	n/a	42.9609855990872
105.2151147690602	0.75	4	early	em_task_post	n/a	n/a	n/a	n/a	n/a
112.0	1.5	5	early	stimulus	n/a	157.5	n/a	n/a	n/a
117.5	0.5	5	early	dm_task_pre	n/a	n/a	n/a	n/a	n/a
118.0	0.942069868091494	5	early	dm_task	0.942069868091494	n/a	21.0	-1.0	n/a
118.9420698680915	0.75	5	early	dm_task_post	n/a	n/a	n/a	n/a	n/a
129.5	0.5	5	early	em_task_pre	n/a	n/a	n/a	n/a	n/a
130.0	2.6866163411178015	5	early	em_task	n/a	n/a	n/a	n/a	158.75747566869
132.6866163411178	0.75	5	early	em_task_post	n/a	n/a	n/a	n/a	n/a
140.0	1.5	6	early	stimulus	n/a	67.5	n/a	n/a	n/a
145.5	0.5	6	early	dm_task_pre	n/a	n/a	n/a	n/a	n/a
146.0	1.49911743728444	6	early	dm_task	1.49911743728444	n/a	-4.0	1.0	n/a
147.49911743728444	0.75	6	early	dm_task_post	n/a	n/a	n/a	n/a	n/a
157.5	0.5	6	early	em_task_pre	n/a	n/a	n/a	n/a	n/a
158.0	2.6941693644039013	6	early	em_task	n/a	n/a	n/a	n/a	69.4242275459591
160.6941693644039	0.75	6	early	em_task_post	n/a	n/a	n/a	n/a	n/a
168.0	1.5	7	early	stimulus	n/a	7.5	n/a	n/a	n/a
173.5	0.5	7	early	dm_task_pre	n/a	n/a	n/a	n/a	n/a
174.0	1.23919404437765	7	early	dm_task	1.23919404437765	n/a	4.0	-1.0	n/a
175.23919404437765	0.75	7	early	dm_task_post	n/a	n/a	n/a	n/a	n/a
185.5	0.5	7	early	em_task_pre	n/a	n/a	n/a	n/a	n/a
186.0	2.0499797612428985	7	early	em_task	n/a	n/a	n/a	n/a	11.2174179847866
188.0499797612429	0.75	7	early	em_task_post	n/a	n/a	n/a	n/a	n/a
196.0	1.5	8	late	stimulus	n/a	150.0	n/a	n/a	n/a
207.5	0.5	8	late	dm_task_pre	n/a	n/a	n/a	n/a	n/a
208.0	0.859534537419677	8	late	dm_task	0.859534537419677	n/a	-4.0	1.0	n/a
208.85953453741968	0.75	8	late	dm_task_post	n/a	n/a	n/a	n/a	n/a
213.5	0.5	8	late	em_task_pre	n/a	n/a	n/a	n/a	n/a
214.0	3.0896265613845983	8	late	em_task	n/a	n/a	n/a	n/a	157.902564455652
217.0896265613846	0.75	8	late	em_task_post	n/a	n/a	n/a	n/a	n/a
224.0	1.5	9	early	stimulus	n/a	112.5	n/a	n/a	n/a
229.5	0.5	9	early	dm_task_pre	n/a	n/a	n/a	n/a	n/a
230.0	1.01772833243012	9	early	dm_task	1.01772833243012	n/a	4.0	-1.0	n/a
231.01772833243012	0.75	9	early	dm_task_post	n/a	n/a	n/a	n/a	n/a
241.5	0.5	9	early	em_task_pre	n/a	n/a	n/a	n/a	n/a
242.0	2.5796650690027008	9	early	em_task	n/a	n/a	n/a	n/a	103.603463260457
244.57966506900271	0.75	9	early	em_task_post	n/a	n/a	n/a	n/a	n/a
252.0	1.5	10	late	stimulus	n/a	172.5	n/a	n/a	n/a
263.5	0.5	10	late	dm_task_pre	n/a	n/a	n/a	n/a	n/a
264.0	0.98862581141293	10	late	dm_task	0.98862581141293	n/a	0.0	-1.0	n/a
264.98862581141293	0.75	10	late	dm_task_post	n/a	n/a	n/a	n/a	n/a
269.5	0.5	10	late	em_task_pre	n/a	n/a	n/a	n/a	n/a
270.0	3.3527573090978002	10	late	em_task	n/a	n/a	n/a	n/a	168.28955072617
273.3527573090978	0.75	10	late	em_task_post	n/a	n/a	n/a	n/a	n/a
280.0	1.5	11	late	stimulus	n/a	165.0	n/a	n/a	n/a
291.5	0.5	11	late	dm_task_pre	n/a	n/a	n/a	n/a	n/a
292.0	0.928525072988123	11	late	dm_task	0.928525072988123	n/a	-21.0	1.0	n/a
292.9285250729881	0.75	11	late	dm_task_post	n/a	n/a	n/a	n/a	n/a
297.5	0.5	11	late	em_task_pre	n/a	n/a	n/a	n/a	n/a
298.0	2.359268286265401	11	late	em_task	n/a	n/a	n/a	n/a	163.99183732163
300.3592682862654	0.75	11	late	em_task_post	n/a	n/a	n/a	n/a	n/a
308.0	1.5	12	late	stimulus	n/a	90.0	n/a	n/a	n/a
319.5	0.5	12	late	dm_task_pre	n/a	n/a	n/a	n/a	n/a
320.0	0.852026394102722	12	late	dm_task	0.852026394102722	n/a	-21.0	1.0	n/a
320.8520263941027	0.75	12	late	dm_task_post	n/a	n/a	n/a	n/a	n/a
325.5	0.5	12	late	em_task_pre	n/a	n/a	n/a	n/a	n/a
326.0	2.3834860604256	12	late	em_task	n/a	n/a	n/a	n/a	93.4800158716421
328.3834860604256	0.75	12	late	em_task_post	n/a	n/a	n/a	n/a	n/a
