onset	duration	trial	trial_type	event_type	response_time	value_stimulus	value_reference	response_decision	response_estimation
0.0	1.5	1	early	stimulus	n/a	105.0	n/a	n/a	n/a
5.5	0.5	1	early	dm_task_pre	n/a	n/a	n/a	n/a	n/a
6.0	1.39632845298911	1	early	dm_task	1.39632845298911	n/a	-4.0	-1.0	n/a
7.39632845298911	0.75	1	early	dm_task_post	n/a	n/a	n/a	n/a	n/a
17.5	0.5	1	early	em_task_pre	n/a	n/a	n/a	n/a	n/a
18.0	4.5	1	early	em_task	n/a	n/a	n/a	n/a	n/a
22.5	0.75	1	early	em_task_post	n/a	n/a	n/a	n/a	n/a
28.0	1.5	2	late	stimulus	n/a	142.5	n/a	n/a	n/a
39.5	0.5	2	late	dm_task_pre	n/a	n/a	n/a	n/a	n/a
40.0	0.798021409995272	2	late	dm_task	0.798021409995272	n/a	4.0	-1.0	n/a
40.79802140999527	0.75	2	late	dm_task_post	n/a	n/a	n/a	n/a	n/a
45.5	0.5	2	late	em_task_pre	n/a	n/a	n/a	n/a	n/a
46.0	4.129773116990702	2	late	em_task	n/a	n/a	n/a	n/a	126.834626953217
50.129773116990705	0.75	2	late	em_task_post	n/a	n/a	n/a	n/a	n/a
56.0	1.5	3	late	stimulus	n/a	45.0	n/a	n/a	n/a
67.5	0.5	3	late	dm_task_pre	n/a	n/a	n/a	n/a	n/a
68.0	1.24538941199717	3	late	dm_task	1.24538941199717	n/a	0.0	-1.0	n/a
69.24538941199717	0.75	3	late	dm_task_post	n/a	n/a	n/a	n/a	n/a
73.5	0.5	3	late	em_task_pre	n/a	n/a	n/a	n/a	n/a
74.0	3.9485850759957017	3	late	em_task	n/a	n/a	n/a	n/a	23.9314936145072
77.94858507599571	0.75	3	late	em_task_post	n/a	n/a	n/a	n/a	n/a
84.0	1.5	4	early	stimulus	n/a	127.5	n/a	n/a	n/a
89.5	0.5	4	early	dm_task_pre	n/a	n/a	n/a	n/a	n/a
90.0	1.09256162699603	4	early	dm_task	1.09256162699603	n/a	4.0	-1.0	n/a
91.09256162699603	0.75	4	early	dm_task_post	n/a	n/a	n/a	n/a	n/a
101.5	0.5	4	early	em_task_pre	n/a	n/a	n/a	n/a	n/a
102.0	4.5	4	early	em_task	n/a	n/a	n/a	n/a	n/a
106.5	0.75	4	early	em_task_post	n/a	n/a	n/a	n/a	n/a
112.0	1.5	5	late	stimulus	n/a	120.0	n/a	n/a	n/a
123.5	0.5	5	late	dm_task_pre	n/a	n/a	n/a	n/a	n/a
124.0	0.920110004997696	5	late	dm_task	0.920110004997696	n/a	-4.0	1.0	n/a
124.9201100049977	0.75	5	late	dm_task_post	n/a	n/a	n/a	n/a	n/a
129.5	0.5	5	late	em_task_pre	n/a	n/a	n/a	n/a	n/a
130.0	2.4751627660007003	5	late	em_task	n/a	n/a	n/a	n/a	141.664278340743
132.4751627660007	0.75	5	late	em_task_post	n/a	n/a	n/a	n/a	n/a
140.0	1.5	6	early	stimulus	n/a	165.0	n/a	n/a	n/a
145.5	0.5	6	early	dm_task_pre	n/a	n/a	n/a	n/a	n/a
146.0	1.5	6	early	dm_task	1.67235013798927	n/a	21.0	1.0	n/a
147.5	0.75	6	early	dm_task_post	n/a	n/a	n/a	n/a	n/a
157.5	0.5	6	early	em_task_pre	n/a	n/a	n/a	n/a	n/a
158.0	2.7118578749942017	6	early	em_task	n/a	n/a	n/a	n/a	164.116749659958
160.7118578749942	0.75	6	early	em_task_post	n/a	n/a	n/a	n/a	n/a
168.0	1.5	7	late	stimulus	n/a	82.5	n/a	n/a	n/a
179.5	0.5	7	late	dm_task_pre	n/a	n/a	n/a	n/a	n/a
180.0	0.819789513989235	7	late	dm_task	0.819789513989235	n/a	4.0	-1.0	n/a
180.81978951398924	0.75	7	late	dm_task_post	n/a	n/a	n/a	n/a	n/a
185.5	0.5	7	late	em_task_pre	n/a	n/a	n/a	n/a	n/a
186.0	2.569141393993	7	late	em_task	n/a	n/a	n/a	n/a	68.7015932007909
188.569141393993	0.75	7	late	em_task_post	n/a	n/a	n/a	n/a	n/a
196.0	1.5	8	late	stimulus	n/a	7.5	n/a	n/a	n/a
207.5	0.5	8	late	dm_task_pre	n/a	n/a	n/a	n/a	n/a
208.0	0.846044477992109	8	late	dm_task	0.846044477992109	n/a	4.0	1.0	n/a
208.8460444779921	0.75	8	late	dm_task_post	n/a	n/a	n/a	n/a	n/a
213.5	0.5	8	late	em_task_pre	n/a	n/a	n/a	n/a	n/a
214.0	3.7581356689915992	8	late	em_task	n/a	n/a	n/a	n/a	12.296900323313
217.7581356689916	0.75	8	late	em_task_post	n/a	n/a	n/a	n/a	n/a
224.0	1.5	9	early	stimulus	n/a	157.5	n/a	n/a	n/a
229.5	0.5	9	early	dm_task_pre	n/a	n/a	n/a	n/a	n/a
230.0	0.867145341995638	9	early	dm_task	0.867145341995638	n/a	21.0	-1.0	n/a
230.86714534199564	0.75	9	early	dm_task_post	n/a	n/a	n/a	n/a	n/a
241.5	0.5	9	early	em_task_pre	n/a	n/a	n/a	n/a	n/a
242.0	4.5	9	early	em_task	n/a	n/a	n/a	n/a	n/a
246.5	0.75	9	early	em_task_post	n/a	n/a	n/a	n/a	n/a
252.0	1.5	10	late	stimulus	n/a	22.5	n/a	n/a	n/a
263.5	0.5	10	late	dm_task_pre	n/a	n/a	n/a	n/a	n/a
264.0	1.24732513699564	10	late	dm_task	1.24732513699564	n/a	-4.0	-1.0	n/a
265.24732513699564	0.75	10	late	dm_task_post	n/a	n/a	n/a	n/a	n/a
269.5	0.5	10	late	em_task_pre	n/a	n/a	n/a	n/a	n/a
270.0	2.8514364930015006	10	late	em_task	n/a	n/a	n/a	n/a	0.154617005286333
272.85143649300153	0.75	10	late	em_task_post	n/a	n/a	n/a	n/a	n/a
280.0	1.5	11	late	stimulus	n/a	52.5	n/a	n/a	n/a
291.5	0.5	11	late	dm_task_pre	n/a	n/a	n/a	n/a	n/a
292.0	1.00319648599543	11	late	dm_task	1.00319648599543	n/a	0.0	1.0	n/a
293.00319648599543	0.75	11	late	dm_task_post	n/a	n/a	n/a	n/a	n/a
297.5	0.5	11	late	em_task_pre	n/a	n/a	n/a	n/a	n/a
298.0	3.0309493269888	11	late	em_task	n/a	n/a	n/a	n/a	58.1977963665014
301.0309493269888	0.75	11	late	em_task_post	n/a	n/a	n/a	n/a	n/a
308.0	1.5	12	late	stimulus	n/a	150.0	n/a	n/a	n/a
319.5	0.5	12	late	dm_task_pre	n/a	n/a	n/a	n/a	n/a
320.0	1.05716151298839	12	late	dm_task	1.05716151298839	n/a	-21.0	-1.0	n/a
321.0571615129884	0.75	12	late	dm_task_post	n/a	n/a	n/a	n/a	n/a
325.5	0.5	12	late	em_task_pre	n/a	n/a	n/a	n/a	n/a
326.0	3.520526068998201	12	late	em_task	n/a	n/a	n/a	n/a	118.851264978249
329.5205260689982	0.75	12	late	em_task_post	n/a	n/a	n/a	n/a	n/a
