onset	duration	trial	trial_type	event_type	response_time	value_stimulus	value_reference	response_decision	response_estimation
0.0	1.5	1	late	stimulus	n/a	157.5	n/a	n/a	n/a
11.5	0.5	1	late	dm_task_pre	n/a	n/a	n/a	n/a	n/a
12.0	1.10895645800338	1	late	dm_task	1.10895645800338	n/a	0.0	-1.0	n/a
13.10895645800338	0.75	1	late	dm_task_post	n/a	n/a	n/a	n/a	n/a
17.5	0.5	1	late	em_task_pre	n/a	n/a	n/a	n/a	n/a
18.0	3.0395861370052017	1	late	em_task	n/a	n/a	n/a	n/a	156.697869364501
21.0395861370052	0.75	1	late	em_task_post	n/a	n/a	n/a	n/a	n/a
28.0	1.5	2	early	stimulus	n/a	30.0	n/a	n/a	n/a
33.5	0.5	2	early	dm_task_pre	n/a	n/a	n/a	n/a	n/a
34.0	1.0828301319998	2	early	dm_task	1.0828301319998	n/a	4.0	-1.0	n/a
35.0828301319998	0.75	2	early	dm_task_post	n/a	n/a	n/a	n/a	n/a
45.5	0.5	2	early	em_task_pre	n/a	n/a	n/a	n/a	n/a
46.0	2.7103246250044	2	early	em_task	n/a	n/a	n/a	n/a	19.7580401747033
48.710324625004404	0.75	2	early	em_task_post	n/a	n/a	n/a	n/a	n/a
56.0	1.5	3	late	stimulus	n/a	90.0	n/a	n/a	n/a
67.5	0.5	3	late	dm_task_pre	n/a	n/a	n/a	n/a	n/a
68.0	1.134645817001	3	late	dm_task	1.134645817001	n/a	-4.0	-1.0	n/a
69.134645817001	0.75	3	late	dm_task_post	n/a	n/a	n/a	n/a	n/a
73.5	0.5	3	late	em_task_pre	n/a	n/a	n/a	n/a	n/a
74.0	4.5	3	late	em_task	n/a	n/a	n/a	n/a	n/a
78.5	0.75	3	late	em_task_post	n/a	n/a	n/a	n/a	n/a
84.0	1.5	4	early	stimulus	n/a	60.0	n/a	n/a	n/a
89.5	0.5	4	early	dm_task_pre	n/a	n/a	n/a	n/a	n/a
90.0	0.690928780997638	4	early	dm_task	0.690928780997638	n/a	0.0	1.0	n/a
90.69092878099764	0.75	4	early	dm_task_post	n/a	n/a	n/a	n/a	n/a
101.5	0.5	4	early	em_task_pre	n/a	n/a	n/a	n/a	n/a
102.0	1.5467656900000009	4	early	em_task	n/a	n/a	n/a	n/a	67.3134496163883
103.54676569	0.75	4	early	em_task_post	n/a	n/a	n/a	n/a	n/a
112.0	1.5	5	early	stimulus	n/a	22.5	n/a	n/a	n/a
117.5	0.5	5	early	dm_task_pre	n/a	n/a	n/a	n/a	n/a
118.0	0.995522508004797	5	early	dm_task	0.995522508004797	n/a	4.0	-1.0	n/a
118.9955225080048	0.75	5	early	dm_task_post	n/a	n/a	n/a	n/a	n/a
129.5	0.5	5	early	em_task_pre	n/a	n/a	n/a	n/a	n/a
130.0	4.223142253002202	5	early	em_task	n/a	n/a	n/a	n/a	24.1079124006736
134.2231422530022	0.75	5	early	em_task_post	n/a	n/a	n/a	n/a	n/a
140.0	1.5	6	late	stimulus	n/a	75.0	n/a	n/a	n/a
151.5	0.5	6	late	dm_task_pre	n/a	n/a	n/a	n/a	n/a
152.0	0.847438085009344	6	late	dm_task	0.847438085009344	n/a	0.0	-1.0	n/a
152.84743808500934	0.75	6	late	dm_task_post	n/a	n/a	n/a	n/a	n/a
157.5	0.5	6	late	em_task_pre	n/a	n/a	n/a	n/a	n/a
158.0	1.8502023799956007	6	late	em_task	n/a	n/a	n/a	n/a	63.7920007889308
159.8502023799956	0.75	6	late	em_task_post	n/a	n/a	n/a	n/a	n/a
168.0	1.5	7	early	stimulus	n/a	37.5	n/a	n/a	n/a
173.5	0.5	7	early	dm_task_pre	n/a	n/a	n/a	n/a	n/a
174.0	0.804018484006519	7	early	dm_task	0.804018484006519	n/a	0.0	-1.0	n/a
174.80401848400652	0.75	7	early	dm_task_post	n/a	n/a	n/a	n/a	n/a
185.5	0.5	7	early	em_task_pre	n/a	n/a	n/a	n/a	n/a
186.0	2.3882032730035014	7	early	em_task	n/a	n/a	n/a	n/a	20.252299302929
188.3882032730035	0.75	7	early	em_task_post	n/a	n/a	n/a	n/a	n/a
196.0	1.5	8	early	stimulus	n/a	165.0	n/a	n/a	n/a
201.5	0.5	8	early	dm_task_pre	n/a	n/a	n/a	n/a	n/a
202.0	1.04661086000851	8	early	dm_task	1.04661086000851	n/a	-21.0	1.0	n/a
203.0466108600085	0.75	8	early	dm_task_post	n/a	n/a	n/a	n/a	n/a
213.5	0.5	8	early	em_task_pre	n/a	n/a	n/a	n/a	n/a
214.0	2.3727545080036982	8	early	em_task	n/a	n/a	n/a	n/a	157.931953648098
216.3727545080037	0.75	8	early	em_task_post	n/a	n/a	n/a	n/a	n/a
224.0	1.5	9	early	stimulus	n/a	15.0	n/a	n/a	n/a
229.5	0.5	9	early	dm_task_pre	n/a	n/a	n/a	n/a	n/a
230.0	0.754986339001334	9	early	dm_task	0.754986339001334	n/a	-21.0	1.0	n/a
230.75498633900133	0.75	9	early	dm_task_post	n/a	n/a	n/a	n/a	n/a
241.5	0.5	9	early	em_task_pre	n/a	n/a	n/a	n/a	n/a
242.0	3.8233430900000016	9	early	em_task	n/a	n/a	n/a	n/a	21.7753265230392
245.82334309	0.75	9	early	em_task_post	n/a	n/a	n/a	n/a	n/a
252.0	1.5	10	early	stimulus	n/a	150.0	n/a	n/a	n/a
257.5	0.5	10	early	dm_task_pre	n/a	n/a	n/a	n/a	n/a
258.0	1.13346825599729	10	early	dm_task	1.13346825599729	n/a	-21.0	-1.0	n/a
259.1334682559973	0.75	10	early	dm_task_post	n/a	n/a	n/a	n/a	n/a
269.5	0.5	10	early	em_task_pre	n/a	n/a	n/a	n/a	n/a
270.0	4.2609895700006994	10	early	em_task	n/a	n/a	n/a	n/a	134.247559513414
274.2609895700007	0.75	10	early	em_task_post	n/a	n/a	n/a	n/a	n/a
280.0	1.5	11	early	stimulus	n/a	82.5	n/a	n/a	n/a
285.5	0.5	11	early	dm_task_pre	n/a	n/a	n/a	n/a	n/a
286.0	1.02343522799492	11	early	dm_task	1.02343522799492	n/a	21.0	-1.0	n/a
287.0234352279949	0.75	11	early	dm_task_post	n/a	n/a	n/a	n/a	n/a
297.5	0.5	11	early	em_task_pre	n/a	n/a	n/a	n/a	n/a
298.0	3.3651952930086004	11	early	em_task	n/a	n/a	n/a	n/a	72.1284324458228
301.3651952930086	0.75	11	early	em_task_post	n/a	n/a	n/a	n/a	n/a
308.0	1.5	12	early	stimulus	n/a	0.0	n/a	n/a	n/a
313.5	0.5	12	early	dm_task_pre	n/a	n/a	n/a	n/a	n/a
314.0	0.991660081999726	12	early	dm_task	0.991660081999726	n/a	4.0	-1.0	n/a
314.9916600819997	0.75	12	early	dm_task_post	n/a	n/a	n/a	n/a	n/a
325.5	0.5	12	early	em_task_pre	n/a	n/a	n/a	n/a	n/a
326.0	3.939720652007999	12	early	em_task	n/a	n/a	n/a	n/a	171.130419331044
329.939720652008	0.75	12	early	em_task_post	n/a	n/a	n/a	n/a	n/a
