onset	duration	trial	trial_type	event_type	response_time	value_stimulus	value_reference	response_decision	response_estimation
0.0	1.5	1	late	stimulus	n/a	67.5	n/a	n/a	n/a
11.5	0.5	1	late	dm_task_pre	n/a	n/a	n/a	n/a	n/a
12.0	1.14846868696623	1	late	dm_task	1.14846868696623	n/a	0.0	1.0	n/a
13.148468686966229	0.75	1	late	dm_task_post	n/a	n/a	n/a	n/a	n/a
17.5	0.5	1	late	em_task_pre	n/a	n/a	n/a	n/a	n/a
18.0	2.9141603438183985	1	late	em_task	n/a	n/a	n/a	n/a	74.0752197307854
20.9141603438184	0.75	1	late	em_task_post	n/a	n/a	n/a	n/a	n/a
28.0	1.5	2	late	stimulus	n/a	135.0	n/a	n/a	n/a
39.5	0.5	2	late	dm_task_pre	n/a	n/a	n/a	n/a	n/a
40.0	0.872863227967173	2	late	dm_task	0.872863227967173	n/a	21.0	-1.0	n/a
40.87286322796717	0.75	2	late	dm_task_post	n/a	n/a	n/a	n/a	n/a
45.5	0.5	2	late	em_task_pre	n/a	n/a	n/a	n/a	n/a
46.0	2.6690662079491005	2	late	em_task	n/a	n/a	n/a	n/a	147.325146606089
48.6690662079491	0.75	2	late	em_task_post	n/a	n/a	n/a	n/a	n/a
56.0	1.5	3	late	stimulus	n/a	0.0	n/a	n/a	n/a
67.5	0.5	3	late	dm_task_pre	n/a	n/a	n/a	n/a	n/a
68.0	0.862193030770868	3	late	dm_task	0.862193030770868	n/a	-21.0	1.0	n/a
68.86219303077087	0.75	3	late	dm_task_post	n/a	n/a	n/a	n/a	n/a
73.5	0.5	3	late	em_task_pre	n/a	n/a	n/a	n/a	n/a
74.0	1.793563921935899	3	late	em_task	n/a	n/a	n/a	n/a	166.305886286858
75.7935639219359	0.75	3	late	em_task_post	n/a	n/a	n/a	n/a	n/a
84.0	1.5	4	early	stimulus	n/a	97.5	n/a	n/a	n/a
89.5	0.5	4	early	dm_task_pre	n/a	n/a	n/a	n/a	n/a
90.0	0.654462248785421	4	early	dm_task	0.654462248785421	n/a	-21.0	1.0	n/a
90.65446224878542	0.75	4	early	dm_task_post	n/a	n/a	n/a	n/a	n/a
101.5	0.5	4	early	em_task_pre	n/a	n/a	n/a	n/a	n/a
102.0	4.5	4	early	em_task	n/a	n/a	n/a	n/a	n/a
106.5	0.75	4	early	em_task_post	n/a	n/a	n/a	n/a	n/a
112.0	1.5	5	early	stimulus	n/a	22.5	n/a	n/a	n/a
117.5	0.5	5	early	dm_task_pre	n/a	n/a	n/a	n/a	n/a
118.0	0.744983951793984	5	early	dm_task	0.744983951793984	n/a	4.0	1.0	n/a
118.74498395179398	0.75	5	early	dm_task_post	n/a	n/a	n/a	n/a	n/a
129.5	0.5	5	early	em_task_pre	n/a	n/a	n/a	n/a	n/a
130.0	2.2733313078060995	5	early	em_task	n/a	n/a	n/a	n/a	28.7371948431551
132.2733313078061	0.75	5	early	em_task_post	n/a	n/a	n/a	n/a	n/a
140.0	1.5	6	early	stimulus	n/a	37.5	n/a	n/a	n/a
145.5	0.5	6	early	dm_task_pre	n/a	n/a	n/a	n/a	n/a
146.0	1.00195021391846	6	early	dm_task	1.00195021391846	n/a	-4.0	1.0	n/a
147.00195021391846	0.75	6	early	dm_task_post	n/a	n/a	n/a	n/a	n/a
157.5	0.5	6	early	em_task_pre	n/a	n/a	n/a	n/a	n/a
158.0	3.929193227784701	6	early	em_task	n/a	n/a	n/a	n/a	22.713309741612
161.9291932277847	0.75	6	early	em_task_post	n/a	n/a	n/a	n/a	n/a
168.0	1.5	7	late	stimulus	n/a	30.0	n/a	n/a	n/a
179.5	0.5	7	late	dm_task_pre	n/a	n/a	n/a	n/a	n/a
180.0	0.870740380836651	7	late	dm_task	0.870740380836651	n/a	21.0	-1.0	n/a
180.87074038083665	0.75	7	late	dm_task_post	n/a	n/a	n/a	n/a	n/a
185.5	0.5	7	late	em_task_pre	n/a	n/a	n/a	n/a	n/a
186.0	3.234688475960901	7	late	em_task	n/a	n/a	n/a	n/a	29.2619942755464
189.2346884759609	0.75	7	late	em_task_post	n/a	n/a	n/a	n/a	n/a
196.0	1.5	8	early	stimulus	n/a	157.5	n/a	n/a	n/a
201.5	0.5	8	early	dm_task_pre	n/a	n/a	n/a	n/a	n/a
202.0	0.729532924946398	8	early	dm_task	0.729532924946398	n/a	4.0	-1.0	n/a
202.7295329249464	0.75	8	early	dm_task_post	n/a	n/a	n/a	n/a	n/a
213.5	0.5	8	early	em_task_pre	n/a	n/a	n/a	n/a	n/a
214.0	3.3246106968727	8	early	em_task	n/a	n/a	n/a	n/a	156.933687959819
217.3246106968727	0.75	8	early	em_task_post	n/a	n/a	n/a	n/a	n/a
224.0	1.5	9	late	stimulus	n/a	82.5	n/a	n/a	n/a
235.5	0.5	9	late	dm_task_pre	n/a	n/a	n/a	n/a	n/a
236.0	0.667448019841686	9	late	dm_task	0.667448019841686	n/a	4.0	-1.0	n/a
236.6674480198417	0.75	9	late	dm_task_post	n/a	n/a	n/a	n/a	n/a
241.5	0.5	9	late	em_task_pre	n/a	n/a	n/a	n/a	n/a
242.0	3.3320906059815982	9	late	em_task	n/a	n/a	n/a	n/a	82.8509293986245
245.3320906059816	0.75	9	late	em_task_post	n/a	n/a	n/a	n/a	n/a
252.0	1.5	10	early	stimulus	n/a	120.0	n/a	n/a	n/a
257.5	0.5	10	early	dm_task_pre	n/a	n/a	n/a	n/a	n/a
258.0	0.976754963863641	10	early	dm_task	0.976754963863641	n/a	4.0	-1.0	n/a
258.97675496386364	0.75	10	early	dm_task_post	n/a	n/a	n/a	n/a	n/a
269.5	0.5	10	early	em_task_pre	n/a	n/a	n/a	n/a	n/a
270.0	4.5	10	early	em_task	n/a	n/a	n/a	n/a	n/a
274.5	0.75	10	early	em_task_post	n/a	n/a	n/a	n/a	n/a
280.0	1.5	11	late	stimulus	n/a	75.0	n/a	n/a	n/a
291.5	0.5	11	late	dm_task_pre	n/a	n/a	n/a	n/a	n/a
292.0	0.881789480801672	11	late	dm_task	0.881789480801672	n/a	0.0	1.0	n/a
292.8817894808017	0.75	11	late	dm_task_post	n/a	n/a	n/a	n/a	n/a
297.5	0.5	11	late	em_task_pre	n/a	n/a	n/a	n/a	n/a
298.0	1.8110869058874002	11	late	em_task	n/a	n/a	n/a	n/a	82.038993264752
299.8110869058874	0.75	11	late	em_task_post	n/a	n/a	n/a	n/a	n/a
308.0	1.5	12	late	stimulus	n/a	45.0	n/a	n/a	n/a
319.5	0.5	12	late	dm_task_pre	n/a	n/a	n/a	n/a	n/a
320.0	0.6715606469661	12	late	dm_task	0.6715606469661	n/a	0.0	1.0	n/a
320.6715606469661	0.75	12	late	dm_task_post	n/a	n/a	n/a	n/a	n/a
325.5	0.5	12	late	em_task_pre	n/a	n/a	n/a	n/a	n/a
326.0	2.6512843319214987	12	late	em_task	n/a	n/a	n/a	n/a	56.2654240475466
328.6512843319215	0.75	12	late	em_task_post	n/a	n/a	n/a	n/a	n/a
