onset	duration	trial	trial_type	event_type	response_time	value_stimulus	value_reference	response_decision	response_estimation
0.0	1.5	1	late	stimulus	n/a	67.5	n/a	n/a	n/a
11.5	0.5	1	late	dm_task_pre	n/a	n/a	n/a	n/a	n/a
12.0	0.62079468400043	1	late	dm_task	0.62079468400043	n/a	21.0	-1.0	n/a
12.62079468400043	0.75	1	late	dm_task_post	n/a	n/a	n/a	n/a	n/a
17.5	0.5	1	late	em_task_pre	n/a	n/a	n/a	n/a	n/a
18.0	2.935592383999399	1	late	em_task	n/a	n/a	n/a	n/a	68.085810212433
20.9355923839994	0.75	1	late	em_task_post	n/a	n/a	n/a	n/a	n/a
28.0	1.5	2	late	stimulus	n/a	90.0	n/a	n/a	n/a
39.5	0.5	2	late	dm_task_pre	n/a	n/a	n/a	n/a	n/a
40.0	0.709799074998955	2	late	dm_task	0.709799074998955	n/a	-21.0	1.0	n/a
40.709799074998955	0.75	2	late	dm_task_post	n/a	n/a	n/a	n/a	n/a
45.5	0.5	2	late	em_task_pre	n/a	n/a	n/a	n/a	n/a
46.0	3.0075180989988013	2	late	em_task	n/a	n/a	n/a	n/a	90.6041193645007
49.0075180989988	0.75	2	late	em_task_post	n/a	n/a	n/a	n/a	n/a
56.0	1.5	3	late	stimulus	n/a	165.0	n/a	n/a	n/a
67.5	0.5	3	late	dm_task_pre	n/a	n/a	n/a	n/a	n/a
68.0	1.10001823899984	3	late	dm_task	1.10001823899984	n/a	-21.0	1.0	n/a
69.10001823899984	0.75	3	late	dm_task_post	n/a	n/a	n/a	n/a	n/a
73.5	0.5	3	late	em_task_pre	n/a	n/a	n/a	n/a	n/a
74.0	2.3642784309995015	3	late	em_task	n/a	n/a	n/a	n/a	166.008040174703
76.3642784309995	0.75	3	late	em_task_post	n/a	n/a	n/a	n/a	n/a
84.0	1.5	4	early	stimulus	n/a	127.5	n/a	n/a	n/a
89.5	0.5	4	early	dm_task_pre	n/a	n/a	n/a	n/a	n/a
90.0	1.25944449899907	4	early	dm_task	1.25944449899907	n/a	0.0	1.0	n/a
91.25944449899907	0.75	4	early	dm_task_post	n/a	n/a	n/a	n/a	n/a
101.5	0.5	4	early	em_task_pre	n/a	n/a	n/a	n/a	n/a
102.0	1.8534916659992007	4	early	em_task	n/a	n/a	n/a	n/a	130.57743213095
103.8534916659992	0.75	4	early	em_task_post	n/a	n/a	n/a	n/a	n/a
112.0	1.5	5	late	stimulus	n/a	60.0	n/a	n/a	n/a
123.5	0.5	5	late	dm_task_pre	n/a	n/a	n/a	n/a	n/a
124.0	1.24688090299969	5	late	dm_task	1.24688090299969	n/a	4.0	-1.0	n/a
125.24688090299969	0.75	5	late	dm_task_post	n/a	n/a	n/a	n/a	n/a
129.5	0.5	5	late	em_task_pre	n/a	n/a	n/a	n/a	n/a
130.0	2.3285283019995013	5	late	em_task	n/a	n/a	n/a	n/a	50.4384496163883
132.3285283019995	0.75	5	late	em_task_post	n/a	n/a	n/a	n/a	n/a
140.0	1.5	6	late	stimulus	n/a	75.0	n/a	n/a	n/a
151.5	0.5	6	late	dm_task_pre	n/a	n/a	n/a	n/a	n/a
152.0	0.853547152999454	6	late	dm_task	0.853547152999454	n/a	-21.0	1.0	n/a
152.85354715299945	0.75	6	late	dm_task_post	n/a	n/a	n/a	n/a	n/a
157.5	0.5	6	late	em_task_pre	n/a	n/a	n/a	n/a	n/a
158.0	2.8675675230005986	6	late	em_task	n/a	n/a	n/a	n/a	60.6704124006736
160.8675675230006	0.75	6	late	em_task_post	n/a	n/a	n/a	n/a	n/a
168.0	1.5	7	late	stimulus	n/a	97.5	n/a	n/a	n/a
179.5	0.5	7	late	dm_task_pre	n/a	n/a	n/a	n/a	n/a
180.0	1.35872549799933	7	late	dm_task	1.35872549799933	n/a	4.0	1.0	n/a
181.35872549799933	0.75	7	late	dm_task_post	n/a	n/a	n/a	n/a	n/a
185.5	0.5	7	late	em_task_pre	n/a	n/a	n/a	n/a	n/a
186.0	2.5912421779994013	7	late	em_task	n/a	n/a	n/a	n/a	98.2451257889308
188.5912421779994	0.75	7	late	em_task_post	n/a	n/a	n/a	n/a	n/a
196.0	1.5	8	late	stimulus	n/a	172.5	n/a	n/a	n/a
207.5	0.5	8	late	dm_task_pre	n/a	n/a	n/a	n/a	n/a
208.0	0.900010380999447	8	late	dm_task	0.900010380999447	n/a	-4.0	1.0	n/a
208.90001038099945	0.75	8	late	dm_task_post	n/a	n/a	n/a	n/a	n/a
213.5	0.5	8	late	em_task_pre	n/a	n/a	n/a	n/a	n/a
214.0	2.9471588369997015	8	late	em_task	n/a	n/a	n/a	n/a	168.611674302929
216.9471588369997	0.75	8	late	em_task_post	n/a	n/a	n/a	n/a	n/a
224.0	1.5	9	late	stimulus	n/a	150.0	n/a	n/a	n/a
235.5	0.5	9	late	dm_task_pre	n/a	n/a	n/a	n/a	n/a
236.0	0.706199164998907	9	late	dm_task	0.706199164998907	n/a	4.0	1.0	n/a
236.7061991649989	0.75	9	late	dm_task_post	n/a	n/a	n/a	n/a	n/a
241.5	0.5	9	late	em_task_pre	n/a	n/a	n/a	n/a	n/a
242.0	2.387045035000501	9	late	em_task	n/a	n/a	n/a	n/a	162.853828648098
244.3870450350005	0.75	9	late	em_task_post	n/a	n/a	n/a	n/a	n/a
252.0	1.5	10	late	stimulus	n/a	30.0	n/a	n/a	n/a
263.5	0.5	10	late	dm_task_pre	n/a	n/a	n/a	n/a	n/a
264.0	0.695983100000376	10	late	dm_task	0.695983100000376	n/a	21.0	-1.0	n/a
264.6959831000004	0.75	10	late	dm_task_post	n/a	n/a	n/a	n/a	n/a
269.5	0.5	10	late	em_task_pre	n/a	n/a	n/a	n/a	n/a
270.0	4.076290216000402	10	late	em_task	n/a	n/a	n/a	n/a	30.9159515230392
274.0762902160004	0.75	10	late	em_task_post	n/a	n/a	n/a	n/a	n/a
280.0	1.5	11	early	stimulus	n/a	157.5	n/a	n/a	n/a
285.5	0.5	11	early	dm_task_pre	n/a	n/a	n/a	n/a	n/a
286.0	0.555510813999717	11	early	dm_task	0.555510813999717	n/a	-21.0	1.0	n/a
286.5555108139997	0.75	11	early	dm_task_post	n/a	n/a	n/a	n/a	n/a
297.5	0.5	11	early	em_task_pre	n/a	n/a	n/a	n/a	n/a
298.0	4.5	11	early	em_task	n/a	n/a	n/a	n/a	n/a
302.5	0.75	11	early	em_task_post	n/a	n/a	n/a	n/a	n/a
308.0	1.5	12	late	stimulus	n/a	52.5	n/a	n/a	n/a
319.5	0.5	12	late	dm_task_pre	n/a	n/a	n/a	n/a	n/a
320.0	0.659578827000587	12	late	dm_task	0.659578827000587	n/a	21.0	-1.0	n/a
320.6595788270006	0.75	12	late	dm_task_post	n/a	n/a	n/a	n/a	n/a
325.5	0.5	12	late	em_task_pre	n/a	n/a	n/a	n/a	n/a
326.0	3.440516672999401	12	late	em_task	n/a	n/a	n/a	n/a	58.0659324458228
329.4405166729994	0.75	12	late	em_task_post	n/a	n/a	n/a	n/a	n/a
