onset	duration	trial	trial_type	event_type	response_time	value_stimulus	value_reference	response_decision	response_estimation
0.0	1.5	1	late	stimulus	n/a	30.0	n/a	n/a	n/a
11.5	0.5	1	late	dm_task_pre	n/a	n/a	n/a	n/a	n/a
12.0	1.48256372299511	1	late	dm_task	1.48256372299511	n/a	-4.0	1.0	n/a
13.48256372299511	0.75	1	late	dm_task_post	n/a	n/a	n/a	n/a	n/a
17.5	0.5	1	late	em_task_pre	n/a	n/a	n/a	n/a	n/a
18.0	2.169382781998099	1	late	em_task	n/a	n/a	n/a	n/a	25.2134943645007
20.1693827819981	0.75	1	late	em_task_post	n/a	n/a	n/a	n/a	n/a
28.0	1.5	2	late	stimulus	n/a	105.0	n/a	n/a	n/a
39.5	0.5	2	late	dm_task_pre	n/a	n/a	n/a	n/a	n/a
40.0	1.10838213299576	2	late	dm_task	1.10838213299576	n/a	-21.0	1.0	n/a
41.10838213299576	0.75	2	late	dm_task_post	n/a	n/a	n/a	n/a	n/a
45.5	0.5	2	late	em_task_pre	n/a	n/a	n/a	n/a	n/a
46.0	3.0618276140011993	2	late	em_task	n/a	n/a	n/a	n/a	99.9142901747033
49.0618276140012	0.75	2	late	em_task_post	n/a	n/a	n/a	n/a	n/a
56.0	1.5	3	late	stimulus	n/a	157.5	n/a	n/a	n/a
67.5	0.5	3	late	dm_task_pre	n/a	n/a	n/a	n/a	n/a
68.0	1.367194010003	3	late	dm_task	1.367194010003	n/a	0.0	-1.0	n/a
69.367194010003	0.75	3	late	dm_task_post	n/a	n/a	n/a	n/a	n/a
73.5	0.5	3	late	em_task_pre	n/a	n/a	n/a	n/a	n/a
74.0	2.0043687260039995	3	late	em_task	n/a	n/a	n/a	n/a	145.34305713095
76.004368726004	0.75	3	late	em_task_post	n/a	n/a	n/a	n/a	n/a
84.0	1.5	4	early	stimulus	n/a	22.5	n/a	n/a	n/a
89.5	0.5	4	early	dm_task_pre	n/a	n/a	n/a	n/a	n/a
90.0	1.5	4	early	dm_task	1.54218262700306	n/a	21.0	-1.0	n/a
91.5	0.75	4	early	dm_task_post	n/a	n/a	n/a	n/a	n/a
101.5	0.5	4	early	em_task_pre	n/a	n/a	n/a	n/a	n/a
102.0	2.2627887429989997	4	early	em_task	n/a	n/a	n/a	n/a	34.2665746163883
104.26278874299899	0.75	4	early	em_task_post	n/a	n/a	n/a	n/a	n/a
112.0	1.5	5	late	stimulus	n/a	7.5	n/a	n/a	n/a
123.5	0.5	5	late	dm_task_pre	n/a	n/a	n/a	n/a	n/a
124.0	1.06919648300391	5	late	dm_task	1.06919648300391	n/a	4.0	1.0	n/a
125.0691964830039	0.75	5	late	dm_task_post	n/a	n/a	n/a	n/a	n/a
129.5	0.5	5	late	em_task_pre	n/a	n/a	n/a	n/a	n/a
130.0	3.1387530280043983	5	late	em_task	n/a	n/a	n/a	n/a	28.3266624006736
133.1387530280044	0.75	5	late	em_task_post	n/a	n/a	n/a	n/a	n/a
140.0	1.5	6	late	stimulus	n/a	127.5	n/a	n/a	n/a
151.5	0.5	6	late	dm_task_pre	n/a	n/a	n/a	n/a	n/a
152.0	1.02893102499365	6	late	dm_task	1.02893102499365	n/a	0.0	-1.0	n/a
153.02893102499365	0.75	6	late	dm_task_post	n/a	n/a	n/a	n/a	n/a
157.5	0.5	6	late	em_task_pre	n/a	n/a	n/a	n/a	n/a
158.0	2.9988089739926984	6	late	em_task	n/a	n/a	n/a	n/a	120.042000788931
160.9988089739927	0.75	6	late	em_task_post	n/a	n/a	n/a	n/a	n/a
168.0	1.5	7	early	stimulus	n/a	0.0	n/a	n/a	n/a
173.5	0.5	7	early	dm_task_pre	n/a	n/a	n/a	n/a	n/a
174.0	1.2684451709938	7	early	dm_task	1.2684451709938	n/a	-21.0	1.0	n/a
175.2684451709938	0.75	7	early	dm_task_post	n/a	n/a	n/a	n/a	n/a
185.5	0.5	7	early	em_task_pre	n/a	n/a	n/a	n/a	n/a
186.0	2.7069027919933006	7	early	em_task	n/a	n/a	n/a	n/a	7.59604930292903
188.7069027919933	0.75	7	early	em_task_post	n/a	n/a	n/a	n/a	n/a
196.0	1.5	8	late	stimulus	n/a	60.0	n/a	n/a	n/a
207.5	0.5	8	late	dm_task_pre	n/a	n/a	n/a	n/a	n/a
208.0	0.847841062990483	8	late	dm_task	0.847841062990483	n/a	0.0	1.0	n/a
208.84784106299048	0.75	8	late	dm_task_post	n/a	n/a	n/a	n/a	n/a
213.5	0.5	8	late	em_task_pre	n/a	n/a	n/a	n/a	n/a
214.0	4.133781039999999	8	late	em_task	n/a	n/a	n/a	n/a	53.1663286480979
218.13378104	0.75	8	late	em_task_post	n/a	n/a	n/a	n/a	n/a
224.0	1.5	9	late	stimulus	n/a	150.0	n/a	n/a	n/a
235.5	0.5	9	late	dm_task_pre	n/a	n/a	n/a	n/a	n/a
236.0	1.39010003599105	9	late	dm_task	1.39010003599105	n/a	-4.0	1.0	n/a
237.39010003599105	0.75	9	late	dm_task_post	n/a	n/a	n/a	n/a	n/a
241.5	0.5	9	late	em_task_pre	n/a	n/a	n/a	n/a	n/a
242.0	3.375913402997	9	late	em_task	n/a	n/a	n/a	n/a	152.556576523039
245.375913402997	0.75	9	late	em_task_post	n/a	n/a	n/a	n/a	n/a
252.0	1.5	10	late	stimulus	n/a	97.5	n/a	n/a	n/a
263.5	0.5	10	late	dm_task_pre	n/a	n/a	n/a	n/a	n/a
264.0	0.881612270997721	10	late	dm_task	0.881612270997721	n/a	21.0	-1.0	n/a
264.8816122709977	0.75	10	late	dm_task_post	n/a	n/a	n/a	n/a	n/a
269.5	0.5	10	late	em_task_pre	n/a	n/a	n/a	n/a	n/a
270.0	2.0511936969997002	10	late	em_task	n/a	n/a	n/a	n/a	106.825684513414
272.0511936969997	0.75	10	late	em_task_post	n/a	n/a	n/a	n/a	n/a
280.0	1.5	11	late	stimulus	n/a	112.5	n/a	n/a	n/a
291.5	0.5	11	late	dm_task_pre	n/a	n/a	n/a	n/a	n/a
292.0	0.840672995997011	11	late	dm_task	0.840672995997011	n/a	4.0	1.0	n/a
292.840672995997	0.75	11	late	dm_task_post	n/a	n/a	n/a	n/a	n/a
297.5	0.5	11	late	em_task_pre	n/a	n/a	n/a	n/a	n/a
298.0	3.1774262230028008	11	late	em_task	n/a	n/a	n/a	n/a	112.206557445823
301.1774262230028	0.75	11	late	em_task_post	n/a	n/a	n/a	n/a	n/a
308.0	1.5	12	early	stimulus	n/a	120.0	n/a	n/a	n/a
313.5	0.5	12	early	dm_task_pre	n/a	n/a	n/a	n/a	n/a
314.0	1.38232130999677	12	early	dm_task	1.38232130999677	n/a	0.0	-1.0	n/a
315.38232130999677	0.75	12	early	dm_task_post	n/a	n/a	n/a	n/a	n/a
325.5	0.5	12	early	em_task_pre	n/a	n/a	n/a	n/a	n/a
326.0	1.7857463179970985	12	early	em_task	n/a	n/a	n/a	n/a	116.286669331044
327.7857463179971	0.75	12	early	em_task_post	n/a	n/a	n/a	n/a	n/a
