onset	duration	trial	trial_type	event_type	response_time	value_stimulus	value_reference	response_decision	response_estimation
0.0	1.5	1	late	stimulus	n/a	22.5	n/a	n/a	n/a
11.5	0.5	1	late	dm_task_pre	n/a	n/a	n/a	n/a	n/a
12.0	1.02704770800483	1	late	dm_task	1.02704770800483	n/a	4.0	1.0	n/a
13.02704770800483	0.75	1	late	dm_task_post	n/a	n/a	n/a	n/a	n/a
17.5	0.5	1	late	em_task_pre	n/a	n/a	n/a	n/a	n/a
18.0	2.6472255819972013	1	late	em_task	n/a	n/a	n/a	n/a	41.3934448431551
20.6472255819972	0.75	1	late	em_task_post	n/a	n/a	n/a	n/a	n/a
28.0	1.5	2	late	stimulus	n/a	0.0	n/a	n/a	n/a
39.5	0.5	2	late	dm_task_pre	n/a	n/a	n/a	n/a	n/a
40.0	1.41987603499729	2	late	dm_task	1.41987603499729	n/a	4.0	-1.0	n/a
41.41987603499729	0.75	2	late	dm_task_post	n/a	n/a	n/a	n/a	n/a
45.5	0.5	2	late	em_task_pre	n/a	n/a	n/a	n/a	n/a
46.0	1.9713681809952988	2	late	em_task	n/a	n/a	n/a	n/a	178.807059741612
47.9713681809953	0.75	2	late	em_task_post	n/a	n/a	n/a	n/a	n/a
56.0	1.5	3	early	stimulus	n/a	165.0	n/a	n/a	n/a
61.5	0.5	3	early	dm_task_pre	n/a	n/a	n/a	n/a	n/a
62.0	1.36012338699948	3	early	dm_task	1.36012338699948	n/a	-21.0	1.0	n/a
63.36012338699948	0.75	3	early	dm_task_post	n/a	n/a	n/a	n/a	n/a
73.5	0.5	3	early	em_task_pre	n/a	n/a	n/a	n/a	n/a
74.0	2.9813486810016983	3	early	em_task	n/a	n/a	n/a	n/a	160.746369275546
76.98134868100169	0.75	3	early	em_task_post	n/a	n/a	n/a	n/a	n/a
84.0	1.5	4	late	stimulus	n/a	172.5	n/a	n/a	n/a
95.5	0.5	4	late	dm_task_pre	n/a	n/a	n/a	n/a	n/a
96.0	0.838205516993185	4	late	dm_task	0.838205516993185	n/a	-21.0	1.0	n/a
96.83820551699318	0.75	4	late	dm_task_post	n/a	n/a	n/a	n/a	n/a
101.5	0.5	4	late	em_task_pre	n/a	n/a	n/a	n/a	n/a
102.0	3.0745430050010008	4	late	em_task	n/a	n/a	n/a	n/a	159.043062959819
105.074543005001	0.75	4	late	em_task_post	n/a	n/a	n/a	n/a	n/a
112.0	1.5	5	late	stimulus	n/a	105.0	n/a	n/a	n/a
123.5	0.5	5	late	dm_task_pre	n/a	n/a	n/a	n/a	n/a
124.0	1.13064244099951	5	late	dm_task	1.13064244099951	n/a	4.0	-1.0	n/a
125.13064244099951	0.75	5	late	dm_task_post	n/a	n/a	n/a	n/a	n/a
129.5	0.5	5	late	em_task_pre	n/a	n/a	n/a	n/a	n/a
130.0	1.548753169001401	5	late	em_task	n/a	n/a	n/a	n/a	108.163429398625
131.5487531690014	0.75	5	late	em_task_post	n/a	n/a	n/a	n/a	n/a
140.0	1.5	6	early	stimulus	n/a	37.5	n/a	n/a	n/a
145.5	0.5	6	early	dm_task_pre	n/a	n/a	n/a	n/a	n/a
146.0	0.855505871004425	6	early	dm_task	0.855505871004425	n/a	21.0	-1.0	n/a
146.85550587100442	0.75	6	early	dm_task_post	n/a	n/a	n/a	n/a	n/a
157.5	0.5	6	early	em_task_pre	n/a	n/a	n/a	n/a	n/a
158.0	2.0419516590045994	6	early	em_task	n/a	n/a	n/a	n/a	31.9772897517275
160.0419516590046	0.75	6	early	em_task_post	n/a	n/a	n/a	n/a	n/a
168.0	1.5	7	early	stimulus	n/a	45.0	n/a	n/a	n/a
173.5	0.5	7	early	dm_task_pre	n/a	n/a	n/a	n/a	n/a
174.0	0.862747695995495	7	early	dm_task	0.862747695995495	n/a	21.0	-1.0	n/a
174.8627476959955	0.75	7	early	dm_task_post	n/a	n/a	n/a	n/a	n/a
185.5	0.5	7	early	em_task_pre	n/a	n/a	n/a	n/a	n/a
186.0	2.2013520470063987	7	early	em_task	n/a	n/a	n/a	n/a	38.445243264752
188.2013520470064	0.75	7	early	em_task_post	n/a	n/a	n/a	n/a	n/a
196.0	1.5	8	early	stimulus	n/a	7.5	n/a	n/a	n/a
201.5	0.5	8	early	dm_task_pre	n/a	n/a	n/a	n/a	n/a
202.0	1.15577064000536	8	early	dm_task	1.15577064000536	n/a	-21.0	-1.0	n/a
203.15577064000536	0.75	8	early	dm_task_post	n/a	n/a	n/a	n/a	n/a
213.5	0.5	8	early	em_task_pre	n/a	n/a	n/a	n/a	n/a
214.0	3.2275544269941996	8	early	em_task	n/a	n/a	n/a	n/a	2.82792404754657
217.2275544269942	0.75	8	early	em_task_post	n/a	n/a	n/a	n/a	n/a
224.0	1.5	9	late	stimulus	n/a	135.0	n/a	n/a	n/a
235.5	0.5	9	late	dm_task_pre	n/a	n/a	n/a	n/a	n/a
236.0	1.30112302000634	9	late	dm_task	1.30112302000634	n/a	-4.0	1.0	n/a
237.30112302000634	0.75	9	late	dm_task_post	n/a	n/a	n/a	n/a	n/a
241.5	0.5	9	late	em_task_pre	n/a	n/a	n/a	n/a	n/a
242.0	3.6871246100054016	9	late	em_task	n/a	n/a	n/a	n/a	122.832707033755
245.6871246100054	0.75	9	late	em_task_post	n/a	n/a	n/a	n/a	n/a
252.0	1.5	10	late	stimulus	n/a	30.0	n/a	n/a	n/a
263.5	0.5	10	late	dm_task_pre	n/a	n/a	n/a	n/a	n/a
264.0	1.5	10	late	dm_task	1.94429192399548	n/a	0.0	1.0	n/a
265.5	0.75	10	late	dm_task_post	n/a	n/a	n/a	n/a	n/a
269.5	0.5	10	late	em_task_pre	n/a	n/a	n/a	n/a	n/a
270.0	1.6777706980065012	10	late	em_task	n/a	n/a	n/a	n/a	41.9119805181025
271.6777706980065	0.75	10	late	em_task_post	n/a	n/a	n/a	n/a	n/a
280.0	1.5	11	late	stimulus	n/a	112.5	n/a	n/a	n/a
291.5	0.5	11	late	dm_task_pre	n/a	n/a	n/a	n/a	n/a
292.0	0.919557012006408	11	late	dm_task	0.919557012006408	n/a	0.0	1.0	n/a
292.9195570120064	0.75	11	late	dm_task_post	n/a	n/a	n/a	n/a	n/a
297.5	0.5	11	late	em_task_pre	n/a	n/a	n/a	n/a	n/a
298.0	1.6377582120040017	11	late	em_task	n/a	n/a	n/a	n/a	113.971045615429
299.637758212004	0.75	11	late	em_task_post	n/a	n/a	n/a	n/a	n/a
308.0	1.5	12	late	stimulus	n/a	120.0	n/a	n/a	n/a
319.5	0.5	12	late	dm_task_pre	n/a	n/a	n/a	n/a	n/a
320.0	0.6434813090018	12	late	dm_task	0.6434813090018	n/a	-21.0	1.0	n/a
320.6434813090018	0.75	12	late	dm_task_post	n/a	n/a	n/a	n/a	n/a
325.5	0.5	12	late	em_task_pre	n/a	n/a	n/a	n/a	n/a
326.0	2.6629592259996997	12	late	em_task	n/a	n/a	n/a	n/a	130.688793404737
328.6629592259997	0.75	12	late	em_task_post	n/a	n/a	n/a	n/a	n/a
