onset	duration	trial	trial_type	event_type	response_time	value_stimulus	value_reference	response_decision	response_estimation
0.0	1.5	1	late	stimulus	n/a	135.0	n/a	n/a	n/a
11.5	0.5	1	late	dm_task_pre	n/a	n/a	n/a	n/a	n/a
12.0	0.704245740998886	1	late	dm_task	0.704245740998886	n/a	4.0	-1.0	n/a
12.704245740998886	0.75	1	late	dm_task_post	n/a	n/a	n/a	n/a	n/a
17.5	0.5	1	late	em_task_pre	n/a	n/a	n/a	n/a	n/a
18.0	2.087490200996399	1	late	em_task	n/a	n/a	n/a	n/a	126.323358152813
20.0874902009964	0.75	1	late	em_task_post	n/a	n/a	n/a	n/a	n/a
28.0	1.5	2	late	stimulus	n/a	0.0	n/a	n/a	n/a
39.5	0.5	2	late	dm_task_pre	n/a	n/a	n/a	n/a	n/a
40.0	1.30882952200773	2	late	dm_task	1.30882952200773	n/a	0.0	1.0	n/a
41.30882952200773	0.75	2	late	dm_task_post	n/a	n/a	n/a	n/a	n/a
45.5	0.5	2	late	em_task_pre	n/a	n/a	n/a	n/a	n/a
46.0	3.4219148990087014	2	late	em_task	n/a	n/a	n/a	n/a	179.569001953217
49.4219148990087	0.75	2	late	em_task_post	n/a	n/a	n/a	n/a	n/a
56.0	1.5	3	late	stimulus	n/a	157.5	n/a	n/a	n/a
67.5	0.5	3	late	dm_task_pre	n/a	n/a	n/a	n/a	n/a
68.0	1.02073128899792	3	late	dm_task	1.02073128899792	n/a	0.0	1.0	n/a
69.02073128899792	0.75	3	late	dm_task_post	n/a	n/a	n/a	n/a	n/a
73.5	0.5	3	late	em_task_pre	n/a	n/a	n/a	n/a	n/a
74.0	2.2275487070001	3	late	em_task	n/a	n/a	n/a	n/a	153.306493614507
76.2275487070001	0.75	3	late	em_task_post	n/a	n/a	n/a	n/a	n/a
84.0	1.5	4	late	stimulus	n/a	45.0	n/a	n/a	n/a
95.5	0.5	4	late	dm_task_pre	n/a	n/a	n/a	n/a	n/a
96.0	1.27932596299797	4	late	dm_task	1.27932596299797	n/a	-4.0	-1.0	n/a
97.27932596299797	0.75	4	late	dm_task_post	n/a	n/a	n/a	n/a	n/a
101.5	0.5	4	late	em_task_pre	n/a	n/a	n/a	n/a	n/a
102.0	2.8310787040100003	4	late	em_task	n/a	n/a	n/a	n/a	35.2310291581423
104.83107870401	0.75	4	late	em_task_post	n/a	n/a	n/a	n/a	n/a
112.0	1.5	5	late	stimulus	n/a	22.5	n/a	n/a	n/a
123.5	0.5	5	late	dm_task_pre	n/a	n/a	n/a	n/a	n/a
124.0	0.799090795000666	5	late	dm_task	0.799090795000666	n/a	0.0	-1.0	n/a
124.79909079500067	0.75	5	late	dm_task_post	n/a	n/a	n/a	n/a	n/a
129.5	0.5	5	late	em_task_pre	n/a	n/a	n/a	n/a	n/a
130.0	4.0347455550071984	5	late	em_task	n/a	n/a	n/a	n/a	33.3830283407432
134.0347455550072	0.75	5	late	em_task_post	n/a	n/a	n/a	n/a	n/a
140.0	1.5	6	early	stimulus	n/a	150.0	n/a	n/a	n/a
145.5	0.5	6	early	dm_task_pre	n/a	n/a	n/a	n/a	n/a
146.0	1.28481230900798	6	early	dm_task	1.28481230900798	n/a	-4.0	-1.0	n/a
147.28481230900798	0.75	6	early	dm_task_post	n/a	n/a	n/a	n/a	n/a
157.5	0.5	6	early	em_task_pre	n/a	n/a	n/a	n/a	n/a
158.0	3.878500507999	6	early	em_task	n/a	n/a	n/a	n/a	121.226124659958
161.878500507999	0.75	6	early	em_task_post	n/a	n/a	n/a	n/a	n/a
168.0	1.5	7	early	stimulus	n/a	15.0	n/a	n/a	n/a
173.5	0.5	7	early	dm_task_pre	n/a	n/a	n/a	n/a	n/a
174.0	0.91422183800023	7	early	dm_task	0.91422183800023	n/a	-21.0	1.0	n/a
174.91422183800023	0.75	7	early	dm_task_post	n/a	n/a	n/a	n/a	n/a
185.5	0.5	7	early	em_task_pre	n/a	n/a	n/a	n/a	n/a
186.0	4.5	7	early	em_task	n/a	n/a	n/a	n/a	n/a
190.5	0.75	7	early	em_task_post	n/a	n/a	n/a	n/a	n/a
196.0	1.5	8	early	stimulus	n/a	82.5	n/a	n/a	n/a
201.5	0.5	8	early	dm_task_pre	n/a	n/a	n/a	n/a	n/a
202.0	0.972412709001219	8	early	dm_task	0.972412709001219	n/a	-4.0	-1.0	n/a
202.97241270900122	0.75	8	early	dm_task_post	n/a	n/a	n/a	n/a	n/a
213.5	0.5	8	early	em_task_pre	n/a	n/a	n/a	n/a	n/a
214.0	4.038648870002401	8	early	em_task	n/a	n/a	n/a	n/a	72.765650323313
218.0386488700024	0.75	8	early	em_task_post	n/a	n/a	n/a	n/a	n/a
224.0	1.5	9	late	stimulus	n/a	127.5	n/a	n/a	n/a
235.5	0.5	9	late	dm_task_pre	n/a	n/a	n/a	n/a	n/a
236.0	0.658372086996678	9	late	dm_task	0.658372086996678	n/a	-4.0	-1.0	n/a
236.65837208699668	0.75	9	late	dm_task_post	n/a	n/a	n/a	n/a	n/a
241.5	0.5	9	late	em_task_pre	n/a	n/a	n/a	n/a	n/a
242.0	2.774309290005501	9	late	em_task	n/a	n/a	n/a	n/a	109.923384774676
244.7743092900055	0.75	9	late	em_task_post	n/a	n/a	n/a	n/a	n/a
252.0	1.5	10	early	stimulus	n/a	112.5	n/a	n/a	n/a
257.5	0.5	10	early	dm_task_pre	n/a	n/a	n/a	n/a	n/a
258.0	0.905023704995983	10	early	dm_task	0.905023704995983	n/a	-21.0	1.0	n/a
258.905023704996	0.75	10	early	dm_task_post	n/a	n/a	n/a	n/a	n/a
269.5	0.5	10	early	em_task_pre	n/a	n/a	n/a	n/a	n/a
270.0	3.1650129070040016	10	early	em_task	n/a	n/a	n/a	n/a	116.873367005286
273.165012907004	0.75	10	early	em_task_post	n/a	n/a	n/a	n/a	n/a
280.0	1.5	11	early	stimulus	n/a	172.5	n/a	n/a	n/a
285.5	0.5	11	early	dm_task_pre	n/a	n/a	n/a	n/a	n/a
286.0	0.816411773004802	11	early	dm_task	0.816411773004802	n/a	21.0	-1.0	n/a
286.8164117730048	0.75	11	early	dm_task_post	n/a	n/a	n/a	n/a	n/a
297.5	0.5	11	early	em_task_pre	n/a	n/a	n/a	n/a	n/a
298.0	3.7974362980021006	11	early	em_task	n/a	n/a	n/a	n/a	168.588421366501
301.7974362980021	0.75	11	early	em_task_post	n/a	n/a	n/a	n/a	n/a
308.0	1.5	12	late	stimulus	n/a	7.5	n/a	n/a	n/a
319.5	0.5	12	late	dm_task_pre	n/a	n/a	n/a	n/a	n/a
320.0	1.05000008600473	12	late	dm_task	1.05000008600473	n/a	0.0	1.0	n/a
321.05000008600473	0.75	12	late	dm_task_post	n/a	n/a	n/a	n/a	n/a
325.5	0.5	12	late	em_task_pre	n/a	n/a	n/a	n/a	n/a
326.0	4.5	12	late	em_task	n/a	n/a	n/a	n/a	n/a
330.5	0.75	12	late	em_task_post	n/a	n/a	n/a	n/a	n/a
