onset	duration	trial	trial_type	event_type	response_time	value_stimulus	value_reference	response_decision	response_estimation
0.0	1.5	1	early	stimulus	n/a	52.5	n/a	n/a	n/a
5.5	0.5	1	early	dm_task_pre	n/a	n/a	n/a	n/a	n/a
6.0	1.09751063899603	1	early	dm_task	1.09751063899603	n/a	-4.0	1.0	n/a
7.09751063899603	0.75	1	early	dm_task_post	n/a	n/a	n/a	n/a	n/a
17.5	0.5	1	early	em_task_pre	n/a	n/a	n/a	n/a	n/a
18.0	2.4913255940046	1	early	em_task	n/a	n/a	n/a	n/a	57.2160665031339
20.4913255940046	0.75	1	early	em_task_post	n/a	n/a	n/a	n/a	n/a
28.0	1.5	2	late	stimulus	n/a	22.5	n/a	n/a	n/a
39.5	0.5	2	late	dm_task_pre	n/a	n/a	n/a	n/a	n/a
40.0	1.5	2	late	dm_task	1.83160484200926	n/a	4.0	-1.0	n/a
41.5	0.75	2	late	dm_task_post	n/a	n/a	n/a	n/a	n/a
45.5	0.5	2	late	em_task_pre	n/a	n/a	n/a	n/a	n/a
46.0	3.378893405999399	2	late	em_task	n/a	n/a	n/a	n/a	19.2908440723169
49.3788934059994	0.75	2	late	em_task_post	n/a	n/a	n/a	n/a	n/a
56.0	1.5	3	late	stimulus	n/a	112.5	n/a	n/a	n/a
67.5	0.5	3	late	dm_task_pre	n/a	n/a	n/a	n/a	n/a
68.0	0.795439132009051	3	late	dm_task	0.795439132009051	n/a	4.0	-1.0	n/a
68.79543913200905	0.75	3	late	dm_task_post	n/a	n/a	n/a	n/a	n/a
73.5	0.5	3	late	em_task_pre	n/a	n/a	n/a	n/a	n/a
74.0	2.4665738890034987	3	late	em_task	n/a	n/a	n/a	n/a	107.432156309927
76.4665738890035	0.75	3	late	em_task_post	n/a	n/a	n/a	n/a	n/a
84.0	1.5	4	early	stimulus	n/a	120.0	n/a	n/a	n/a
89.5	0.5	4	early	dm_task_pre	n/a	n/a	n/a	n/a	n/a
90.0	0.481733025007998	4	early	dm_task	0.481733025007998	n/a	-21.0	1.0	n/a
90.481733025008	0.75	4	early	dm_task_post	n/a	n/a	n/a	n/a	n/a
101.5	0.5	4	early	em_task_pre	n/a	n/a	n/a	n/a	n/a
102.0	3.1870502380043	4	early	em_task	n/a	n/a	n/a	n/a	117.402912074313
105.1870502380043	0.75	4	early	em_task_post	n/a	n/a	n/a	n/a	n/a
112.0	1.5	5	early	stimulus	n/a	165.0	n/a	n/a	n/a
117.5	0.5	5	early	dm_task_pre	n/a	n/a	n/a	n/a	n/a
118.0	1.05670353800815	5	early	dm_task	1.05670353800815	n/a	21.0	-1.0	n/a
119.05670353800815	0.75	5	early	dm_task_post	n/a	n/a	n/a	n/a	n/a
129.5	0.5	5	early	em_task_pre	n/a	n/a	n/a	n/a	n/a
130.0	2.5752596880046994	5	early	em_task	n/a	n/a	n/a	n/a	156.863095882722
132.5752596880047	0.75	5	early	em_task_post	n/a	n/a	n/a	n/a	n/a
140.0	1.5	6	late	stimulus	n/a	82.5	n/a	n/a	n/a
151.5	0.5	6	late	dm_task_pre	n/a	n/a	n/a	n/a	n/a
152.0	0.999383928006864	6	late	dm_task	0.999383928006864	n/a	-4.0	-1.0	n/a
152.99938392800686	0.75	6	late	dm_task_post	n/a	n/a	n/a	n/a	n/a
157.5	0.5	6	late	em_task_pre	n/a	n/a	n/a	n/a	n/a
158.0	3.4344407919998012	6	late	em_task	n/a	n/a	n/a	n/a	75.8080483211754
161.4344407919998	0.75	6	late	em_task_post	n/a	n/a	n/a	n/a	n/a
168.0	1.5	7	late	stimulus	n/a	150.0	n/a	n/a	n/a
179.5	0.5	7	late	dm_task_pre	n/a	n/a	n/a	n/a	n/a
180.0	0.936961604005774	7	late	dm_task	0.936961604005774	n/a	0.0	-1.0	n/a
180.93696160400577	0.75	7	late	dm_task_post	n/a	n/a	n/a	n/a	n/a
185.5	0.5	7	late	em_task_pre	n/a	n/a	n/a	n/a	n/a
186.0	2.2766040160059013	7	late	em_task	n/a	n/a	n/a	n/a	143.886776970397
188.2766040160059	0.75	7	late	em_task_post	n/a	n/a	n/a	n/a	n/a
196.0	1.5	8	early	stimulus	n/a	135.0	n/a	n/a	n/a
201.5	0.5	8	early	dm_task_pre	n/a	n/a	n/a	n/a	n/a
202.0	0.960442342999158	8	early	dm_task	0.960442342999158	n/a	-4.0	1.0	n/a
202.96044234299916	0.75	8	early	dm_task_post	n/a	n/a	n/a	n/a	n/a
213.5	0.5	8	early	em_task_pre	n/a	n/a	n/a	n/a	n/a
214.0	2.160602592004601	8	early	em_task	n/a	n/a	n/a	n/a	134.159091383351
216.1606025920046	0.75	8	early	em_task_post	n/a	n/a	n/a	n/a	n/a
224.0	1.5	9	late	stimulus	n/a	172.5	n/a	n/a	n/a
235.5	0.5	9	late	dm_task_pre	n/a	n/a	n/a	n/a	n/a
236.0	0.678800107998541	9	late	dm_task	0.678800107998541	n/a	-21.0	1.0	n/a
236.67880010799854	0.75	9	late	dm_task_post	n/a	n/a	n/a	n/a	n/a
241.5	0.5	9	late	em_task_pre	n/a	n/a	n/a	n/a	n/a
242.0	2.6877337089972997	9	late	em_task	n/a	n/a	n/a	n/a	173.998437580218
244.6877337089973	0.75	9	late	em_task_post	n/a	n/a	n/a	n/a	n/a
252.0	1.5	10	early	stimulus	n/a	97.5	n/a	n/a	n/a
257.5	0.5	10	early	dm_task_pre	n/a	n/a	n/a	n/a	n/a
258.0	1.5	10	early	dm_task	n/a	n/a	0.0	n/a	n/a
259.5	0.75	10	early	dm_task_post	n/a	n/a	n/a	n/a	n/a
269.5	0.5	10	early	em_task_pre	n/a	n/a	n/a	n/a	n/a
270.0	3.8310434809973017	10	early	em_task	n/a	n/a	n/a	n/a	101.201226705297
273.8310434809973	0.75	10	early	em_task_post	n/a	n/a	n/a	n/a	n/a
280.0	1.5	11	early	stimulus	n/a	75.0	n/a	n/a	n/a
285.5	0.5	11	early	dm_task_pre	n/a	n/a	n/a	n/a	n/a
286.0	1.04354829400836	11	early	dm_task	1.04354829400836	n/a	4.0	-1.0	n/a
287.04354829400836	0.75	11	early	dm_task_post	n/a	n/a	n/a	n/a	n/a
297.5	0.5	11	early	em_task_pre	n/a	n/a	n/a	n/a	n/a
298.0	3.0338254980015016	11	early	em_task	n/a	n/a	n/a	n/a	73.7527985939055
301.0338254980015	0.75	11	early	em_task_post	n/a	n/a	n/a	n/a	n/a
308.0	1.5	12	late	stimulus	n/a	90.0	n/a	n/a	n/a
319.5	0.5	12	late	dm_task_pre	n/a	n/a	n/a	n/a	n/a
320.0	0.957786576997023	12	late	dm_task	0.957786576997023	n/a	-4.0	1.0	n/a
320.957786576997	0.75	12	late	dm_task_post	n/a	n/a	n/a	n/a	n/a
325.5	0.5	12	late	em_task_pre	n/a	n/a	n/a	n/a	n/a
326.0	2.6056747140100995	12	late	em_task	n/a	n/a	n/a	n/a	96.6492671626106
328.6056747140101	0.75	12	late	em_task_post	n/a	n/a	n/a	n/a	n/a
