onset	duration	trial	trial_type	event_type	response_time	value_stimulus	value_reference	response_decision	response_estimation
0.0	1.5	1	late	stimulus	n/a	67.5	n/a	n/a	n/a
11.5	0.5	1	late	dm_task_pre	n/a	n/a	n/a	n/a	n/a
12.0	0.617170454934239	1	late	dm_task	0.617170454934239	n/a	0.0	-1.0	n/a
12.61717045493424	0.75	1	late	dm_task_post	n/a	n/a	n/a	n/a	n/a
17.5	0.5	1	late	em_task_pre	n/a	n/a	n/a	n/a	n/a
18.0	1.6642117057926988	1	late	em_task	n/a	n/a	n/a	n/a	76.8877197307854
19.6642117057927	0.75	1	late	em_task_post	n/a	n/a	n/a	n/a	n/a
28.0	1.5	2	early	stimulus	n/a	172.5	n/a	n/a	n/a
33.5	0.5	2	early	dm_task_pre	n/a	n/a	n/a	n/a	n/a
34.0	1.05921084294096	2	early	dm_task	1.05921084294096	n/a	21.0	-1.0	n/a
35.059210842940956	0.75	2	early	dm_task_post	n/a	n/a	n/a	n/a	n/a
45.5	0.5	2	early	em_task_pre	n/a	n/a	n/a	n/a	n/a
46.0	3.737074226141001	2	early	em_task	n/a	n/a	n/a	n/a	10.9188966060892
49.737074226141004	0.75	2	early	em_task_post	n/a	n/a	n/a	n/a	n/a
56.0	1.5	3	early	stimulus	n/a	22.5	n/a	n/a	n/a
61.5	0.5	3	early	dm_task_pre	n/a	n/a	n/a	n/a	n/a
62.0	0.997534355148673	3	early	dm_task	0.997534355148673	n/a	21.0	-1.0	n/a
62.99753435514867	0.75	3	early	dm_task_post	n/a	n/a	n/a	n/a	n/a
73.5	0.5	3	early	em_task_pre	n/a	n/a	n/a	n/a	n/a
74.0	2.8600206249393985	3	early	em_task	n/a	n/a	n/a	n/a	24.9777612868577
76.8600206249394	0.75	3	early	em_task_post	n/a	n/a	n/a	n/a	n/a
84.0	1.5	4	late	stimulus	n/a	75.0	n/a	n/a	n/a
95.5	0.5	4	late	dm_task_pre	n/a	n/a	n/a	n/a	n/a
96.0	1.10337104415521	4	late	dm_task	1.10337104415521	n/a	0.0	-1.0	n/a
97.10337104415521	0.75	4	late	dm_task_post	n/a	n/a	n/a	n/a	n/a
101.5	0.5	4	late	em_task_pre	n/a	n/a	n/a	n/a	n/a
102.0	2.200617597904099	4	late	em_task	n/a	n/a	n/a	n/a	64.7426482732236
104.2006175979041	0.75	4	late	em_task_post	n/a	n/a	n/a	n/a	n/a
112.0	1.5	5	early	stimulus	n/a	97.5	n/a	n/a	n/a
117.5	0.5	5	early	dm_task_pre	n/a	n/a	n/a	n/a	n/a
118.0	1.09451737999916	5	early	dm_task	1.09451737999916	n/a	4.0	-1.0	n/a
119.09451737999916	0.75	5	early	dm_task_post	n/a	n/a	n/a	n/a	n/a
129.5	0.5	5	early	em_task_pre	n/a	n/a	n/a	n/a	n/a
130.0	2.6559782861732018	5	early	em_task	n/a	n/a	n/a	n/a	101.862194843155
132.6559782861732	0.75	5	early	em_task_post	n/a	n/a	n/a	n/a	n/a
140.0	1.5	6	early	stimulus	n/a	7.5	n/a	n/a	n/a
145.5	0.5	6	early	dm_task_pre	n/a	n/a	n/a	n/a	n/a
146.0	0.668049570173025	6	early	dm_task	0.668049570173025	n/a	-21.0	1.0	n/a
146.66804957017303	0.75	6	early	dm_task_post	n/a	n/a	n/a	n/a	n/a
157.5	0.5	6	early	em_task_pre	n/a	n/a	n/a	n/a	n/a
158.0	4.5	6	early	em_task	n/a	n/a	n/a	n/a	n/a
162.5	0.75	6	early	em_task_post	n/a	n/a	n/a	n/a	n/a
168.0	1.5	7	late	stimulus	n/a	112.5	n/a	n/a	n/a
179.5	0.5	7	late	dm_task_pre	n/a	n/a	n/a	n/a	n/a
180.0	0.704678893089294	7	late	dm_task	0.704678893089294	n/a	21.0	-1.0	n/a
180.7046788930893	0.75	7	late	dm_task_post	n/a	n/a	n/a	n/a	n/a
185.5	0.5	7	late	em_task_pre	n/a	n/a	n/a	n/a	n/a
186.0	2.2030221950263	7	late	em_task	n/a	n/a	n/a	n/a	121.371369275546
188.2030221950263	0.75	7	late	em_task_post	n/a	n/a	n/a	n/a	n/a
196.0	1.5	8	late	stimulus	n/a	15.0	n/a	n/a	n/a
207.5	0.5	8	late	dm_task_pre	n/a	n/a	n/a	n/a	n/a
208.0	0.745158128906041	8	late	dm_task	0.745158128906041	n/a	21.0	-1.0	n/a
208.74515812890604	0.75	8	late	dm_task_post	n/a	n/a	n/a	n/a	n/a
213.5	0.5	8	late	em_task_pre	n/a	n/a	n/a	n/a	n/a
214.0	1.2757633319125006	8	late	em_task	n/a	n/a	n/a	n/a	19.8243129598189
215.27576333191251	0.75	8	late	em_task_post	n/a	n/a	n/a	n/a	n/a
224.0	1.5	9	early	stimulus	n/a	37.5	n/a	n/a	n/a
229.5	0.5	9	early	dm_task_pre	n/a	n/a	n/a	n/a	n/a
230.0	0.619741153903306	9	early	dm_task	0.619741153903306	n/a	-4.0	1.0	n/a
230.6197411539033	0.75	9	early	dm_task_post	n/a	n/a	n/a	n/a	n/a
241.5	0.5	9	early	em_task_pre	n/a	n/a	n/a	n/a	n/a
242.0	3.6152928601950016	9	early	em_task	n/a	n/a	n/a	n/a	23.0853043986245
245.615292860195	0.75	9	early	em_task_post	n/a	n/a	n/a	n/a	n/a
252.0	1.5	10	early	stimulus	n/a	0.0	n/a	n/a	n/a
257.5	0.5	10	early	dm_task_pre	n/a	n/a	n/a	n/a	n/a
258.0	0.92659319518134	10	early	dm_task	0.92659319518134	n/a	21.0	-1.0	n/a
258.92659319518134	0.75	10	early	dm_task_post	n/a	n/a	n/a	n/a	n/a
269.5	0.5	10	early	em_task_pre	n/a	n/a	n/a	n/a	n/a
270.0	2.8382511879317	10	early	em_task	n/a	n/a	n/a	n/a	0.336664751727469
272.8382511879317	0.75	10	early	em_task_post	n/a	n/a	n/a	n/a	n/a
280.0	1.5	11	late	stimulus	n/a	150.0	n/a	n/a	n/a
291.5	0.5	11	late	dm_task_pre	n/a	n/a	n/a	n/a	n/a
292.0	0.931167284958065	11	late	dm_task	0.931167284958065	n/a	0.0	-1.0	n/a
292.93116728495806	0.75	11	late	dm_task_post	n/a	n/a	n/a	n/a	n/a
297.5	0.5	11	late	em_task_pre	n/a	n/a	n/a	n/a	n/a
298.0	3.8616119017824992	11	late	em_task	n/a	n/a	n/a	n/a	134.773368264752
301.8616119017825	0.75	11	late	em_task_post	n/a	n/a	n/a	n/a	n/a
308.0	1.5	12	early	stimulus	n/a	165.0	n/a	n/a	n/a
313.5	0.5	12	early	dm_task_pre	n/a	n/a	n/a	n/a	n/a
314.0	1.05668030492961	12	early	dm_task	1.05668030492961	n/a	0.0	-1.0	n/a
315.0566803049296	0.75	12	early	dm_task_post	n/a	n/a	n/a	n/a	n/a
325.5	0.5	12	early	em_task_pre	n/a	n/a	n/a	n/a	n/a
326.0	3.169309777207701	12	early	em_task	n/a	n/a	n/a	n/a	135.718549047547
329.1693097772077	0.75	12	early	em_task_post	n/a	n/a	n/a	n/a	n/a
