onset	duration	trial	trial_type	event_type	response_time	value_stimulus	value_reference	response_decision	response_estimation
0.0	1.5	1	early	stimulus	n/a	127.5	n/a	n/a	n/a
5.5	0.5	1	early	dm_task_pre	n/a	n/a	n/a	n/a	n/a
6.0	0.757392985018669	1	early	dm_task	0.757392985018669	n/a	0.0	-1.0	n/a
6.757392985018669	0.75	1	early	dm_task_post	n/a	n/a	n/a	n/a	n/a
17.5	0.5	1	early	em_task_pre	n/a	n/a	n/a	n/a	n/a
18.0	2.3133907220035006	1	early	em_task	n/a	n/a	n/a	n/a	121.319118518007
20.3133907220035	0.75	1	early	em_task_post	n/a	n/a	n/a	n/a	n/a
28.0	1.5	2	early	stimulus	n/a	105.0	n/a	n/a	n/a
33.5	0.5	2	early	dm_task_pre	n/a	n/a	n/a	n/a	n/a
34.0	0.766556862014113	2	early	dm_task	0.766556862014113	n/a	21.0	-1.0	n/a
34.76655686201411	0.75	2	early	dm_task_post	n/a	n/a	n/a	n/a	n/a
45.5	0.5	2	early	em_task_pre	n/a	n/a	n/a	n/a	n/a
46.0	1.988311879016699	2	early	em_task	n/a	n/a	n/a	n/a	111.009648216548
47.9883118790167	0.75	2	early	em_task_post	n/a	n/a	n/a	n/a	n/a
56.0	1.5	3	early	stimulus	n/a	52.5	n/a	n/a	n/a
61.5	0.5	3	early	dm_task_pre	n/a	n/a	n/a	n/a	n/a
62.0	0.609855873015476	3	early	dm_task	0.609855873015476	n/a	0.0	-1.0	n/a
62.609855873015476	0.75	3	early	dm_task_post	n/a	n/a	n/a	n/a	n/a
73.5	0.5	3	early	em_task_pre	n/a	n/a	n/a	n/a	n/a
74.0	3.065810307016399	3	early	em_task	n/a	n/a	n/a	n/a	46.8500101592054
77.06581030701639	0.75	3	early	em_task_post	n/a	n/a	n/a	n/a	n/a
84.0	1.5	4	late	stimulus	n/a	75.0	n/a	n/a	n/a
95.5	0.5	4	late	dm_task_pre	n/a	n/a	n/a	n/a	n/a
96.0	0.754342785017798	4	late	dm_task	0.754342785017798	n/a	4.0	-1.0	n/a
96.7543427850178	0.75	4	late	dm_task_post	n/a	n/a	n/a	n/a	n/a
101.5	0.5	4	late	em_task_pre	n/a	n/a	n/a	n/a	n/a
102.0	1.3389713630022015	4	late	em_task	n/a	n/a	n/a	n/a	56.3590427013967
103.3389713630022	0.75	4	late	em_task_post	n/a	n/a	n/a	n/a	n/a
112.0	1.5	5	late	stimulus	n/a	172.5	n/a	n/a	n/a
123.5	0.5	5	late	dm_task_pre	n/a	n/a	n/a	n/a	n/a
124.0	1.11500802502269	5	late	dm_task	1.11500802502269	n/a	4.0	-1.0	n/a
125.11500802502269	0.75	5	late	dm_task_post	n/a	n/a	n/a	n/a	n/a
129.5	0.5	5	late	em_task_pre	n/a	n/a	n/a	n/a	n/a
130.0	2.3323971060162982	5	late	em_task	n/a	n/a	n/a	n/a	170.756853129853
132.3323971060163	0.75	5	late	em_task_post	n/a	n/a	n/a	n/a	n/a
140.0	1.5	6	early	stimulus	n/a	37.5	n/a	n/a	n/a
145.5	0.5	6	early	dm_task_pre	n/a	n/a	n/a	n/a	n/a
146.0	0.737828898010775	6	early	dm_task	0.737828898010775	n/a	21.0	-1.0	n/a
146.73782889801078	0.75	6	early	dm_task_post	n/a	n/a	n/a	n/a	n/a
157.5	0.5	6	early	em_task_pre	n/a	n/a	n/a	n/a	n/a
158.0	2.274782748019799	6	early	em_task	n/a	n/a	n/a	n/a	27.415013808817
160.2747827480198	0.75	6	early	em_task_post	n/a	n/a	n/a	n/a	n/a
168.0	1.5	7	early	stimulus	n/a	157.5	n/a	n/a	n/a
173.5	0.5	7	early	dm_task_pre	n/a	n/a	n/a	n/a	n/a
174.0	0.611985965020722	7	early	dm_task	0.611985965020722	n/a	-4.0	1.0	n/a
174.61198596502072	0.75	7	early	dm_task_post	n/a	n/a	n/a	n/a	n/a
185.5	0.5	7	early	em_task_pre	n/a	n/a	n/a	n/a	n/a
186.0	1.1837832849996985	7	early	em_task	n/a	n/a	n/a	n/a	168.026787184766
187.1837832849997	0.75	7	early	em_task_post	n/a	n/a	n/a	n/a	n/a
196.0	1.5	8	early	stimulus	n/a	7.5	n/a	n/a	n/a
201.5	0.5	8	early	dm_task_pre	n/a	n/a	n/a	n/a	n/a
202.0	0.604435234010452	8	early	dm_task	0.604435234010452	n/a	0.0	1.0	n/a
202.60443523401045	0.75	8	early	dm_task_post	n/a	n/a	n/a	n/a	n/a
213.5	0.5	8	early	em_task_pre	n/a	n/a	n/a	n/a	n/a
214.0	3.460690626001501	8	early	em_task	n/a	n/a	n/a	n/a	19.7137948661511
217.4606906260015	0.75	8	early	em_task_post	n/a	n/a	n/a	n/a	n/a
224.0	1.5	9	early	stimulus	n/a	30.0	n/a	n/a	n/a
229.5	0.5	9	early	dm_task_pre	n/a	n/a	n/a	n/a	n/a
230.0	1.21383597701788	9	early	dm_task	1.21383597701788	n/a	-4.0	-1.0	n/a
231.21383597701788	0.75	9	early	dm_task_post	n/a	n/a	n/a	n/a	n/a
241.5	0.5	9	early	em_task_pre	n/a	n/a	n/a	n/a	n/a
242.0	2.618466865009399	9	early	em_task	n/a	n/a	n/a	n/a	18.865522726524
244.6184668650094	0.75	9	early	em_task_post	n/a	n/a	n/a	n/a	n/a
252.0	1.5	10	late	stimulus	n/a	82.5	n/a	n/a	n/a
263.5	0.5	10	late	dm_task_pre	n/a	n/a	n/a	n/a	n/a
264.0	0.642850681004347	10	late	dm_task	0.642850681004347	n/a	0.0	-1.0	n/a
264.64285068100435	0.75	10	late	dm_task_post	n/a	n/a	n/a	n/a	n/a
269.5	0.5	10	late	em_task_pre	n/a	n/a	n/a	n/a	n/a
270.0	1.9281585870194	10	late	em_task	n/a	n/a	n/a	n/a	56.3332739106858
271.9281585870194	0.75	10	late	em_task_post	n/a	n/a	n/a	n/a	n/a
280.0	1.5	11	early	stimulus	n/a	120.0	n/a	n/a	n/a
285.5	0.5	11	early	dm_task_pre	n/a	n/a	n/a	n/a	n/a
286.0	1.2675985120004	11	early	dm_task	1.2675985120004	n/a	-4.0	1.0	n/a
287.2675985120004	0.75	11	early	dm_task_post	n/a	n/a	n/a	n/a	n/a
297.5	0.5	11	early	em_task_pre	n/a	n/a	n/a	n/a	n/a
298.0	2.038320285995699	11	early	em_task	n/a	n/a	n/a	n/a	116.544485918256
300.0383202859957	0.75	11	early	em_task_post	n/a	n/a	n/a	n/a	n/a
308.0	1.5	12	early	stimulus	n/a	142.5	n/a	n/a	n/a
313.5	0.5	12	early	dm_task_pre	n/a	n/a	n/a	n/a	n/a
314.0	0.876807837019442	12	early	dm_task	0.876807837019442	n/a	-4.0	-1.0	n/a
314.87680783701944	0.75	12	early	dm_task_post	n/a	n/a	n/a	n/a	n/a
325.5	0.5	12	early	em_task_pre	n/a	n/a	n/a	n/a	n/a
326.0	1.2130437199957989	12	early	em_task	n/a	n/a	n/a	n/a	149.86330283314
327.2130437199958	0.75	12	early	em_task_post	n/a	n/a	n/a	n/a	n/a
