onset	duration	trial	trial_type	event_type	response_time	value_stimulus	value_reference	response_decision	response_estimation
0.0	1.5	1	early	stimulus	n/a	52.5	n/a	n/a	n/a
5.5	0.5	1	early	dm_task_pre	n/a	n/a	n/a	n/a	n/a
6.0	0.99210146907717	1	early	dm_task	0.99210146907717	n/a	-4.0	1.0	n/a
6.99210146907717	0.75	1	early	dm_task_post	n/a	n/a	n/a	n/a	n/a
17.5	0.5	1	early	em_task_pre	n/a	n/a	n/a	n/a	n/a
18.0	3.5369565631262994	1	early	em_task	n/a	n/a	n/a	n/a	45.722111826526
21.5369565631263	0.75	1	early	em_task_post	n/a	n/a	n/a	n/a	n/a
28.0	1.5	2	late	stimulus	n/a	30.0	n/a	n/a	n/a
39.5	0.5	2	late	dm_task_pre	n/a	n/a	n/a	n/a	n/a
40.0	0.747414283454418	2	late	dm_task	0.747414283454418	n/a	0.0	1.0	n/a
40.74741428345442	0.75	2	late	dm_task_post	n/a	n/a	n/a	n/a	n/a
45.5	0.5	2	late	em_task_pre	n/a	n/a	n/a	n/a	n/a
46.0	3.0435760254040005	2	late	em_task	n/a	n/a	n/a	n/a	40.8085088881253
49.043576025404	0.75	2	late	em_task_post	n/a	n/a	n/a	n/a	n/a
56.0	1.5	3	early	stimulus	n/a	82.5	n/a	n/a	n/a
61.5	0.5	3	early	dm_task_pre	n/a	n/a	n/a	n/a	n/a
62.0	0.522006555460393	3	early	dm_task	0.522006555460393	n/a	-4.0	-1.0	n/a
62.52200655546039	0.75	3	early	dm_task_post	n/a	n/a	n/a	n/a	n/a
73.5	0.5	3	early	em_task_pre	n/a	n/a	n/a	n/a	n/a
74.0	1.5687098391354013	3	early	em_task	n/a	n/a	n/a	n/a	74.211615541409
75.56870983913541	0.75	3	early	em_task_post	n/a	n/a	n/a	n/a	n/a
84.0	1.5	4	early	stimulus	n/a	37.5	n/a	n/a	n/a
89.5	0.5	4	early	dm_task_pre	n/a	n/a	n/a	n/a	n/a
90.0	0.795935602393001	4	early	dm_task	0.795935602393001	n/a	0.0	1.0	n/a
90.795935602393	0.75	4	early	dm_task_post	n/a	n/a	n/a	n/a	n/a
101.5	0.5	4	early	em_task_pre	n/a	n/a	n/a	n/a	n/a
102.0	3.0405645803548005	4	early	em_task	n/a	n/a	n/a	n/a	52.5578011460803
105.0405645803548	0.75	4	early	em_task_post	n/a	n/a	n/a	n/a	n/a
112.0	1.5	5	late	stimulus	n/a	105.0	n/a	n/a	n/a
123.5	0.5	5	late	dm_task_pre	n/a	n/a	n/a	n/a	n/a
124.0	0.633414685260504	5	late	dm_task	0.633414685260504	n/a	4.0	1.0	n/a
124.6334146852605	0.75	5	late	dm_task_post	n/a	n/a	n/a	n/a	n/a
129.5	0.5	5	late	em_task_pre	n/a	n/a	n/a	n/a	n/a
130.0	3.3129417370073	5	late	em_task	n/a	n/a	n/a	n/a	113.766204298608
133.3129417370073	0.75	5	late	em_task_post	n/a	n/a	n/a	n/a	n/a
140.0	1.5	6	early	stimulus	n/a	157.5	n/a	n/a	n/a
145.5	0.5	6	early	dm_task_pre	n/a	n/a	n/a	n/a	n/a
146.0	0.575923405122012	6	early	dm_task	0.575923405122012	n/a	-21.0	1.0	n/a
146.575923405122	0.75	6	early	dm_task_post	n/a	n/a	n/a	n/a	n/a
157.5	0.5	6	early	em_task_pre	n/a	n/a	n/a	n/a	n/a
158.0	2.269760314375201	6	early	em_task	n/a	n/a	n/a	n/a	146.974502321256
160.2697603143752	0.75	6	early	em_task_post	n/a	n/a	n/a	n/a	n/a
168.0	1.5	7	late	stimulus	n/a	22.5	n/a	n/a	n/a
179.5	0.5	7	late	dm_task_pre	n/a	n/a	n/a	n/a	n/a
180.0	1.31152190407738	7	late	dm_task	1.31152190407738	n/a	4.0	-1.0	n/a
181.31152190407738	0.75	7	late	dm_task_post	n/a	n/a	n/a	n/a	n/a
185.5	0.5	7	late	em_task_pre	n/a	n/a	n/a	n/a	n/a
186.0	3.1098010791465995	7	late	em_task	n/a	n/a	n/a	n/a	27.9587907663098
189.1098010791466	0.75	7	late	em_task_post	n/a	n/a	n/a	n/a	n/a
196.0	1.5	8	early	stimulus	n/a	0.0	n/a	n/a	n/a
201.5	0.5	8	early	dm_task_pre	n/a	n/a	n/a	n/a	n/a
202.0	0.604316939134151	8	early	dm_task	0.604316939134151	n/a	-4.0	1.0	n/a
202.60431693913415	0.75	8	early	dm_task_post	n/a	n/a	n/a	n/a	n/a
213.5	0.5	8	early	em_task_pre	n/a	n/a	n/a	n/a	n/a
214.0	2.4495011102407993	8	early	em_task	n/a	n/a	n/a	n/a	2.13304153093878
216.4495011102408	0.75	8	early	em_task_post	n/a	n/a	n/a	n/a	n/a
224.0	1.5	9	late	stimulus	n/a	172.5	n/a	n/a	n/a
235.5	0.5	9	late	dm_task_pre	n/a	n/a	n/a	n/a	n/a
236.0	0.692237187176943	9	late	dm_task	0.692237187176943	n/a	4.0	-1.0	n/a
236.69223718717694	0.75	9	late	dm_task_post	n/a	n/a	n/a	n/a	n/a
241.5	0.5	9	late	em_task_pre	n/a	n/a	n/a	n/a	n/a
242.0	1.3738867342472005	9	late	em_task	n/a	n/a	n/a	n/a	158.530739837297
243.3738867342472	0.75	9	late	em_task_post	n/a	n/a	n/a	n/a	n/a
252.0	1.5	10	early	stimulus	n/a	45.0	n/a	n/a	n/a
257.5	0.5	10	early	dm_task_pre	n/a	n/a	n/a	n/a	n/a
258.0	0.70051689632237	10	early	dm_task	0.70051689632237	n/a	21.0	-1.0	n/a
258.70051689632237	0.75	10	early	dm_task_post	n/a	n/a	n/a	n/a	n/a
269.5	0.5	10	early	em_task_pre	n/a	n/a	n/a	n/a	n/a
270.0	4.1116827582008995	10	early	em_task	n/a	n/a	n/a	n/a	59.9268572495169
274.1116827582009	0.75	10	early	em_task_post	n/a	n/a	n/a	n/a	n/a
280.0	1.5	11	late	stimulus	n/a	60.0	n/a	n/a	n/a
291.5	0.5	11	late	dm_task_pre	n/a	n/a	n/a	n/a	n/a
292.0	0.571183402091265	11	late	dm_task	0.571183402091265	n/a	-21.0	1.0	n/a
292.57118340209126	0.75	11	late	dm_task_post	n/a	n/a	n/a	n/a	n/a
297.5	0.5	11	late	em_task_pre	n/a	n/a	n/a	n/a	n/a
298.0	1.969869852066001	11	late	em_task	n/a	n/a	n/a	n/a	63.5941106556227
299.969869852066	0.75	11	late	em_task_post	n/a	n/a	n/a	n/a	n/a
308.0	1.5	12	early	stimulus	n/a	15.0	n/a	n/a	n/a
313.5	0.5	12	early	dm_task_pre	n/a	n/a	n/a	n/a	n/a
314.0	0.646850174292922	12	early	dm_task	0.646850174292922	n/a	4.0	1.0	n/a
314.6468501742929	0.75	12	early	dm_task_post	n/a	n/a	n/a	n/a	n/a
325.5	0.5	12	early	em_task_pre	n/a	n/a	n/a	n/a	n/a
326.0	2.4590761312284	12	early	em_task	n/a	n/a	n/a	n/a	34.335222771055
328.4590761312284	0.75	12	early	em_task_post	n/a	n/a	n/a	n/a	n/a
