onset	duration	trial	trial_type	event_type	response_time	value_stimulus	value_reference	response_decision	response_estimation
0.0	1.5	1	late	stimulus	n/a	67.5	n/a	n/a	n/a
11.5	0.5	1	late	dm_task_pre	n/a	n/a	n/a	n/a	n/a
12.0	1.5	1	late	dm_task	1.59990345599363	n/a	21.0	1.0	n/a
13.5	0.75	1	late	dm_task_post	n/a	n/a	n/a	n/a	n/a
17.5	0.5	1	late	em_task_pre	n/a	n/a	n/a	n/a	n/a
18.0	2.9682746799953996	1	late	em_task	n/a	n/a	n/a	n/a	42.451688645824
20.9682746799954	0.75	1	late	em_task_post	n/a	n/a	n/a	n/a	n/a
28.0	1.5	2	late	stimulus	n/a	7.5	n/a	n/a	n/a
39.5	0.5	2	late	dm_task_pre	n/a	n/a	n/a	n/a	n/a
40.0	0.807409027998801	2	late	dm_task	0.807409027998801	n/a	-4.0	1.0	n/a
40.8074090279988	0.75	2	late	dm_task_post	n/a	n/a	n/a	n/a	n/a
45.5	0.5	2	late	em_task_pre	n/a	n/a	n/a	n/a	n/a
46.0	3.3947719999996018	2	late	em_task	n/a	n/a	n/a	n/a	26.034611826526
49.394771999999605	0.75	2	late	em_task_post	n/a	n/a	n/a	n/a	n/a
56.0	1.5	3	early	stimulus	n/a	142.5	n/a	n/a	n/a
61.5	0.5	3	early	dm_task_pre	n/a	n/a	n/a	n/a	n/a
62.0	1.3809346499911	3	early	dm_task	1.3809346499911	n/a	4.0	-1.0	n/a
63.3809346499911	0.75	3	early	dm_task_post	n/a	n/a	n/a	n/a	n/a
73.5	0.5	3	early	em_task_pre	n/a	n/a	n/a	n/a	n/a
74.0	1.818505053001001	3	early	em_task	n/a	n/a	n/a	n/a	133.621008888125
75.818505053001	0.75	3	early	em_task_post	n/a	n/a	n/a	n/a	n/a
84.0	1.5	4	early	stimulus	n/a	37.5	n/a	n/a	n/a
89.5	0.5	4	early	dm_task_pre	n/a	n/a	n/a	n/a	n/a
90.0	0.825230323011056	4	early	dm_task	0.825230323011056	n/a	4.0	-1.0	n/a
90.82523032301106	0.75	4	early	dm_task_post	n/a	n/a	n/a	n/a	n/a
101.5	0.5	4	early	em_task_pre	n/a	n/a	n/a	n/a	n/a
102.0	2.2123215880129017	4	early	em_task	n/a	n/a	n/a	n/a	22.883490541409
104.2123215880129	0.75	4	early	em_task_post	n/a	n/a	n/a	n/a	n/a
112.0	1.5	5	late	stimulus	n/a	172.5	n/a	n/a	n/a
123.5	0.5	5	late	dm_task_pre	n/a	n/a	n/a	n/a	n/a
124.0	0.901444493007148	5	late	dm_task	0.901444493007148	n/a	-4.0	-1.0	n/a
124.90144449300715	0.75	5	late	dm_task_post	n/a	n/a	n/a	n/a	n/a
129.5	0.5	5	late	em_task_pre	n/a	n/a	n/a	n/a	n/a
130.0	2.2379938990052004	5	late	em_task	n/a	n/a	n/a	n/a	165.76092614608
132.2379938990052	0.75	5	late	em_task_post	n/a	n/a	n/a	n/a	n/a
140.0	1.5	6	early	stimulus	n/a	90.0	n/a	n/a	n/a
145.5	0.5	6	early	dm_task_pre	n/a	n/a	n/a	n/a	n/a
146.0	0.710034309013281	6	early	dm_task	0.710034309013281	n/a	4.0	-1.0	n/a
146.71003430901328	0.75	6	early	dm_task_post	n/a	n/a	n/a	n/a	n/a
157.5	0.5	6	early	em_task_pre	n/a	n/a	n/a	n/a	n/a
158.0	2.547627463994999	6	early	em_task	n/a	n/a	n/a	n/a	91.9693292986085
160.547627463995	0.75	6	early	em_task_post	n/a	n/a	n/a	n/a	n/a
168.0	1.5	7	late	stimulus	n/a	75.0	n/a	n/a	n/a
179.5	0.5	7	late	dm_task_pre	n/a	n/a	n/a	n/a	n/a
180.0	0.836551946995314	7	late	dm_task	0.836551946995314	n/a	0.0	-1.0	n/a
180.8365519469953	0.75	7	late	dm_task_post	n/a	n/a	n/a	n/a	n/a
185.5	0.5	7	late	em_task_pre	n/a	n/a	n/a	n/a	n/a
186.0	3.290805382013801	7	late	em_task	n/a	n/a	n/a	n/a	64.0057523212557
189.2908053820138	0.75	7	late	em_task_post	n/a	n/a	n/a	n/a	n/a
196.0	1.5	8	early	stimulus	n/a	135.0	n/a	n/a	n/a
201.5	0.5	8	early	dm_task_pre	n/a	n/a	n/a	n/a	n/a
202.0	1.24412401000154	8	early	dm_task	1.24412401000154	n/a	-4.0	-1.0	n/a
203.24412401000154	0.75	8	early	dm_task_post	n/a	n/a	n/a	n/a	n/a
213.5	0.5	8	early	em_task_pre	n/a	n/a	n/a	n/a	n/a
214.0	2.214566996000901	8	early	em_task	n/a	n/a	n/a	n/a	140.45879076631
216.2145669960009	0.75	8	early	em_task_post	n/a	n/a	n/a	n/a	n/a
224.0	1.5	9	early	stimulus	n/a	52.5	n/a	n/a	n/a
229.5	0.5	9	early	dm_task_pre	n/a	n/a	n/a	n/a	n/a
230.0	1.01907730501262	9	early	dm_task	1.01907730501262	n/a	4.0	-1.0	n/a
231.01907730501262	0.75	9	early	dm_task_post	n/a	n/a	n/a	n/a	n/a
241.5	0.5	9	early	em_task_pre	n/a	n/a	n/a	n/a	n/a
242.0	3.743148245994199	9	early	em_task	n/a	n/a	n/a	n/a	49.9455415309388
245.7431482459942	0.75	9	early	em_task_post	n/a	n/a	n/a	n/a	n/a
252.0	1.5	10	late	stimulus	n/a	112.5	n/a	n/a	n/a
263.5	0.5	10	late	dm_task_pre	n/a	n/a	n/a	n/a	n/a
264.0	0.630564010993112	10	late	dm_task	0.630564010993112	n/a	-4.0	1.0	n/a
264.6305640109931	0.75	10	late	dm_task_post	n/a	n/a	n/a	n/a	n/a
269.5	0.5	10	late	em_task_pre	n/a	n/a	n/a	n/a	n/a
270.0	3.6998127280094018	10	late	em_task	n/a	n/a	n/a	n/a	131.108864837297
273.6998127280094	0.75	10	late	em_task_post	n/a	n/a	n/a	n/a	n/a
280.0	1.5	11	late	stimulus	n/a	0.0	n/a	n/a	n/a
291.5	0.5	11	late	dm_task_pre	n/a	n/a	n/a	n/a	n/a
292.0	0.857218896999257	11	late	dm_task	0.857218896999257	n/a	21.0	-1.0	n/a
292.85721889699926	0.75	11	late	dm_task_post	n/a	n/a	n/a	n/a	n/a
297.5	0.5	11	late	em_task_pre	n/a	n/a	n/a	n/a	n/a
298.0	3.6083028950088014	11	late	em_task	n/a	n/a	n/a	n/a	179.458107249517
301.6083028950088	0.75	11	late	em_task_post	n/a	n/a	n/a	n/a	n/a
308.0	1.5	12	late	stimulus	n/a	45.0	n/a	n/a	n/a
319.5	0.5	12	late	dm_task_pre	n/a	n/a	n/a	n/a	n/a
320.0	0.682989046006696	12	late	dm_task	0.682989046006696	n/a	4.0	-1.0	n/a
320.6829890460067	0.75	12	late	dm_task_post	n/a	n/a	n/a	n/a	n/a
325.5	0.5	12	late	em_task_pre	n/a	n/a	n/a	n/a	n/a
326.0	3.1345981819903983	12	late	em_task	n/a	n/a	n/a	n/a	7.34411065562273
329.1345981819904	0.75	12	late	em_task_post	n/a	n/a	n/a	n/a	n/a
