onset	duration	trial	trial_type	event_type	response_time	value_stimulus	value_reference	response_decision	response_estimation
0.0	1.5	1	late	stimulus	n/a	127.5	n/a	n/a	n/a
11.5	0.5	1	late	dm_task_pre	n/a	n/a	n/a	n/a	n/a
12.0	0.808197228237987	1	late	dm_task	0.808197228237987	n/a	-4.0	-1.0	n/a
12.808197228237987	0.75	1	late	dm_task_post	n/a	n/a	n/a	n/a	n/a
17.5	0.5	1	late	em_task_pre	n/a	n/a	n/a	n/a	n/a
18.0	3.1064478480256987	1	late	em_task	n/a	n/a	n/a	n/a	118.295501960922
21.1064478480257	0.75	1	late	em_task_post	n/a	n/a	n/a	n/a	n/a
28.0	1.5	2	early	stimulus	n/a	37.5	n/a	n/a	n/a
33.5	0.5	2	early	dm_task_pre	n/a	n/a	n/a	n/a	n/a
34.0	0.618064069189131	2	early	dm_task	0.618064069189131	n/a	-21.0	1.0	n/a
34.61806406918913	0.75	2	early	dm_task_post	n/a	n/a	n/a	n/a	n/a
45.5	0.5	2	early	em_task_pre	n/a	n/a	n/a	n/a	n/a
46.0	1.845836469903599	2	early	em_task	n/a	n/a	n/a	n/a	36.7884456204332
47.8458364699036	0.75	2	early	em_task_post	n/a	n/a	n/a	n/a	n/a
56.0	1.5	3	early	stimulus	n/a	82.5	n/a	n/a	n/a
61.5	0.5	3	early	dm_task_pre	n/a	n/a	n/a	n/a	n/a
62.0	0.573541378136724	3	early	dm_task	0.573541378136724	n/a	0.0	-1.0	n/a
62.573541378136724	0.75	3	early	dm_task_post	n/a	n/a	n/a	n/a	n/a
73.5	0.5	3	early	em_task_pre	n/a	n/a	n/a	n/a	n/a
74.0	2.4188909349031995	3	early	em_task	n/a	n/a	n/a	n/a	67.7906817102826
76.4188909349032	0.75	3	early	em_task_post	n/a	n/a	n/a	n/a	n/a
84.0	1.5	4	late	stimulus	n/a	142.5	n/a	n/a	n/a
95.5	0.5	4	late	dm_task_pre	n/a	n/a	n/a	n/a	n/a
96.0	0.66249851603061	4	late	dm_task	0.66249851603061	n/a	0.0	-1.0	n/a
96.66249851603061	0.75	4	late	dm_task_post	n/a	n/a	n/a	n/a	n/a
101.5	0.5	4	late	em_task_pre	n/a	n/a	n/a	n/a	n/a
102.0	3.192521563265501	4	late	em_task	n/a	n/a	n/a	n/a	144.021616056606
105.1925215632655	0.75	4	late	em_task_post	n/a	n/a	n/a	n/a	n/a
112.0	1.5	5	early	stimulus	n/a	150.0	n/a	n/a	n/a
117.5	0.5	5	early	dm_task_pre	n/a	n/a	n/a	n/a	n/a
118.0	0.621332955081016	5	early	dm_task	0.621332955081016	n/a	4.0	-1.0	n/a
118.62133295508102	0.75	5	early	dm_task_post	n/a	n/a	n/a	n/a	n/a
129.5	0.5	5	early	em_task_pre	n/a	n/a	n/a	n/a	n/a
130.0	3.1825155429541994	5	early	em_task	n/a	n/a	n/a	n/a	154.319668175846
133.1825155429542	0.75	5	early	em_task_post	n/a	n/a	n/a	n/a	n/a
140.0	1.5	6	early	stimulus	n/a	135.0	n/a	n/a	n/a
145.5	0.5	6	early	dm_task_pre	n/a	n/a	n/a	n/a	n/a
146.0	0.777511041145772	6	early	dm_task	0.777511041145772	n/a	0.0	1.0	n/a
146.77751104114577	0.75	6	early	dm_task_post	n/a	n/a	n/a	n/a	n/a
157.5	0.5	6	early	em_task_pre	n/a	n/a	n/a	n/a	n/a
158.0	2.140025111846601	6	early	em_task	n/a	n/a	n/a	n/a	141.768768462734
160.1400251118466	0.75	6	early	em_task_post	n/a	n/a	n/a	n/a	n/a
168.0	1.5	7	late	stimulus	n/a	7.5	n/a	n/a	n/a
179.5	0.5	7	late	dm_task_pre	n/a	n/a	n/a	n/a	n/a
180.0	0.548510487191379	7	late	dm_task	0.548510487191379	n/a	4.0	-1.0	n/a
180.54851048719138	0.75	7	late	dm_task_post	n/a	n/a	n/a	n/a	n/a
185.5	0.5	7	late	em_task_pre	n/a	n/a	n/a	n/a	n/a
186.0	3.0782160279341007	7	late	em_task	n/a	n/a	n/a	n/a	29.6746304890209
189.0782160279341	0.75	7	late	em_task_post	n/a	n/a	n/a	n/a	n/a
196.0	1.5	8	late	stimulus	n/a	15.0	n/a	n/a	n/a
207.5	0.5	8	late	dm_task_pre	n/a	n/a	n/a	n/a	n/a
208.0	0.703913470264524	8	late	dm_task	0.703913470264524	n/a	-4.0	1.0	n/a
208.70391347026452	0.75	8	late	dm_task_post	n/a	n/a	n/a	n/a	n/a
213.5	0.5	8	late	em_task_pre	n/a	n/a	n/a	n/a	n/a
214.0	3.801125917118	8	late	em_task	n/a	n/a	n/a	n/a	28.5384038991485
217.801125917118	0.75	8	late	em_task_post	n/a	n/a	n/a	n/a	n/a
224.0	1.5	9	late	stimulus	n/a	0.0	n/a	n/a	n/a
235.5	0.5	9	late	dm_task_pre	n/a	n/a	n/a	n/a	n/a
236.0	0.744288111105561	9	late	dm_task	0.744288111105561	n/a	-21.0	1.0	n/a
236.74428811110556	0.75	9	late	dm_task_post	n/a	n/a	n/a	n/a	n/a
241.5	0.5	9	late	em_task_pre	n/a	n/a	n/a	n/a	n/a
242.0	3.5913476971909013	9	late	em_task	n/a	n/a	n/a	n/a	177.310375191618
245.5913476971909	0.75	9	late	em_task_post	n/a	n/a	n/a	n/a	n/a
252.0	1.5	10	late	stimulus	n/a	52.5	n/a	n/a	n/a
263.5	0.5	10	late	dm_task_pre	n/a	n/a	n/a	n/a	n/a
264.0	0.500274198129773	10	late	dm_task	0.500274198129773	n/a	4.0	-1.0	n/a
264.5002741981298	0.75	10	late	dm_task_post	n/a	n/a	n/a	n/a	n/a
269.5	0.5	10	late	em_task_pre	n/a	n/a	n/a	n/a	n/a
270.0	4.5	10	late	em_task	n/a	n/a	n/a	n/a	n/a
274.5	0.75	10	late	em_task_post	n/a	n/a	n/a	n/a	n/a
280.0	1.5	11	late	stimulus	n/a	157.5	n/a	n/a	n/a
291.5	0.5	11	late	dm_task_pre	n/a	n/a	n/a	n/a	n/a
292.0	0.657102474011481	11	late	dm_task	0.657102474011481	n/a	-4.0	-1.0	n/a
292.6571024740115	0.75	11	late	dm_task_post	n/a	n/a	n/a	n/a	n/a
297.5	0.5	11	late	em_task_pre	n/a	n/a	n/a	n/a	n/a
298.0	1.9717625998891997	11	late	em_task	n/a	n/a	n/a	n/a	150.362898541031
299.9717625998892	0.75	11	late	em_task_post	n/a	n/a	n/a	n/a	n/a
308.0	1.5	12	late	stimulus	n/a	60.0	n/a	n/a	n/a
319.5	0.5	12	late	dm_task_pre	n/a	n/a	n/a	n/a	n/a
320.0	0.879953250288963	12	late	dm_task	0.879953250288963	n/a	0.0	-1.0	n/a
320.87995325028896	0.75	12	late	dm_task_post	n/a	n/a	n/a	n/a	n/a
325.5	0.5	12	late	em_task_pre	n/a	n/a	n/a	n/a	n/a
326.0	3.2947495090775014	12	late	em_task	n/a	n/a	n/a	n/a	65.0227669975649
329.2947495090775	0.75	12	late	em_task_post	n/a	n/a	n/a	n/a	n/a
