onset	duration	trial	trial_type	event_type	response_time	value_stimulus	value_reference	response_decision	response_estimation
0.0	1.5	1	early	stimulus	n/a	60.0	n/a	n/a	n/a
5.5	0.5	1	early	dm_task_pre	n/a	n/a	n/a	n/a	n/a
6.0	0.630279382981826	1	early	dm_task	0.630279382981826	n/a	0.0	-1.0	n/a
6.630279382981826	0.75	1	early	dm_task_post	n/a	n/a	n/a	n/a	n/a
17.5	0.5	1	early	em_task_pre	n/a	n/a	n/a	n/a	n/a
18.0	3.2361700919863985	1	early	em_task	n/a	n/a	n/a	n/a	45.5306645533598
21.2361700919864	0.75	1	early	em_task_post	n/a	n/a	n/a	n/a	n/a
28.0	1.5	2	late	stimulus	n/a	112.5	n/a	n/a	n/a
39.5	0.5	2	late	dm_task_pre	n/a	n/a	n/a	n/a	n/a
40.0	0.773523334995843	2	late	dm_task	0.773523334995843	n/a	21.0	-1.0	n/a
40.77352333499584	0.75	2	late	dm_task_post	n/a	n/a	n/a	n/a	n/a
45.5	0.5	2	late	em_task_pre	n/a	n/a	n/a	n/a	n/a
46.0	1.910289542982401	2	late	em_task	n/a	n/a	n/a	n/a	130.738769592852
47.9102895429824	0.75	2	late	em_task_post	n/a	n/a	n/a	n/a	n/a
56.0	1.5	3	late	stimulus	n/a	45.0	n/a	n/a	n/a
67.5	0.5	3	late	dm_task_pre	n/a	n/a	n/a	n/a	n/a
68.0	0.635026341973571	3	late	dm_task	0.635026341973571	n/a	21.0	-1.0	n/a
68.63502634197357	0.75	3	late	dm_task_post	n/a	n/a	n/a	n/a	n/a
73.5	0.5	3	late	em_task_pre	n/a	n/a	n/a	n/a	n/a
74.0	1.8027545899967983	3	late	em_task	n/a	n/a	n/a	n/a	40.5726503231327
75.8027545899968	0.75	3	late	em_task_post	n/a	n/a	n/a	n/a	n/a
84.0	1.5	4	early	stimulus	n/a	22.5	n/a	n/a	n/a
89.5	0.5	4	early	dm_task_pre	n/a	n/a	n/a	n/a	n/a
90.0	1.22469703998649	4	early	dm_task	1.22469703998649	n/a	0.0	1.0	n/a
91.2246970399865	0.75	4	early	dm_task_post	n/a	n/a	n/a	n/a	n/a
101.5	0.5	4	early	em_task_pre	n/a	n/a	n/a	n/a	n/a
102.0	2.2136629959858993	4	early	em_task	n/a	n/a	n/a	n/a	15.309481736886
104.2136629959859	0.75	4	early	em_task_post	n/a	n/a	n/a	n/a	n/a
112.0	1.5	5	late	stimulus	n/a	75.0	n/a	n/a	n/a
123.5	0.5	5	late	dm_task_pre	n/a	n/a	n/a	n/a	n/a
124.0	0.567939970991574	5	late	dm_task	0.567939970991574	n/a	-4.0	-1.0	n/a
124.56793997099157	0.75	5	late	dm_task_post	n/a	n/a	n/a	n/a	n/a
129.5	0.5	5	late	em_task_pre	n/a	n/a	n/a	n/a	n/a
130.0	1.1544162339997008	5	late	em_task	n/a	n/a	n/a	n/a	61.4189697307854
131.1544162339997	0.75	5	late	em_task_post	n/a	n/a	n/a	n/a	n/a
140.0	1.5	6	early	stimulus	n/a	135.0	n/a	n/a	n/a
145.5	0.5	6	early	dm_task_pre	n/a	n/a	n/a	n/a	n/a
146.0	0.660465208988171	6	early	dm_task	0.660465208988171	n/a	-4.0	1.0	n/a
146.66046520898817	0.75	6	early	dm_task_post	n/a	n/a	n/a	n/a	n/a
157.5	0.5	6	early	em_task_pre	n/a	n/a	n/a	n/a	n/a
158.0	1.6150257109839004	6	early	em_task	n/a	n/a	n/a	n/a	142.403271606089
159.6150257109839	0.75	6	early	em_task_post	n/a	n/a	n/a	n/a	n/a
168.0	1.5	7	early	stimulus	n/a	150.0	n/a	n/a	n/a
173.5	0.5	7	early	dm_task_pre	n/a	n/a	n/a	n/a	n/a
174.0	1.28693016097532	7	early	dm_task	1.28693016097532	n/a	-4.0	1.0	n/a
175.28693016097532	0.75	7	early	dm_task_post	n/a	n/a	n/a	n/a	n/a
185.5	0.5	7	early	em_task_pre	n/a	n/a	n/a	n/a	n/a
186.0	1.4067676179984012	7	early	em_task	n/a	n/a	n/a	n/a	140.993386286858
187.4067676179984	0.75	7	early	em_task_post	n/a	n/a	n/a	n/a	n/a
196.0	1.5	8	late	stimulus	n/a	7.5	n/a	n/a	n/a
207.5	0.5	8	late	dm_task_pre	n/a	n/a	n/a	n/a	n/a
208.0	1.23071829800028	8	late	dm_task	1.23071829800028	n/a	-21.0	1.0	n/a
209.23071829800028	0.75	8	late	dm_task_post	n/a	n/a	n/a	n/a	n/a
213.5	0.5	8	late	em_task_pre	n/a	n/a	n/a	n/a	n/a
214.0	1.5318718419875985	8	late	em_task	n/a	n/a	n/a	n/a	7.78952327322356
215.5318718419876	0.75	8	late	em_task_post	n/a	n/a	n/a	n/a	n/a
224.0	1.5	9	early	stimulus	n/a	172.5	n/a	n/a	n/a
229.5	0.5	9	early	dm_task_pre	n/a	n/a	n/a	n/a	n/a
230.0	0.521329836978111	9	early	dm_task	0.521329836978111	n/a	4.0	-1.0	n/a
230.5213298369781	0.75	9	early	dm_task_post	n/a	n/a	n/a	n/a	n/a
241.5	0.5	9	early	em_task_pre	n/a	n/a	n/a	n/a	n/a
242.0	3.174856245983399	9	early	em_task	n/a	n/a	n/a	n/a	162.330944843155
245.1748562459834	0.75	9	early	em_task_post	n/a	n/a	n/a	n/a	n/a
252.0	1.5	10	late	stimulus	n/a	165.0	n/a	n/a	n/a
263.5	0.5	10	late	dm_task_pre	n/a	n/a	n/a	n/a	n/a
264.0	0.614218988979701	10	late	dm_task	0.614218988979701	n/a	4.0	-1.0	n/a
264.6142189889797	0.75	10	late	dm_task_post	n/a	n/a	n/a	n/a	n/a
269.5	0.5	10	late	em_task_pre	n/a	n/a	n/a	n/a	n/a
270.0	1.3489590499957984	10	late	em_task	n/a	n/a	n/a	n/a	157.010184741612
271.3489590499958	0.75	10	late	em_task_post	n/a	n/a	n/a	n/a	n/a
280.0	1.5	11	late	stimulus	n/a	37.5	n/a	n/a	n/a
291.5	0.5	11	late	dm_task_pre	n/a	n/a	n/a	n/a	n/a
292.0	0.791172784985974	11	late	dm_task	0.791172784985974	n/a	-21.0	1.0	n/a
292.791172784986	0.75	11	late	dm_task_post	n/a	n/a	n/a	n/a	n/a
297.5	0.5	11	late	em_task_pre	n/a	n/a	n/a	n/a	n/a
298.0	1.8762199179910013	11	late	em_task	n/a	n/a	n/a	n/a	52.4651192755464
299.876219917991	0.75	11	late	em_task_post	n/a	n/a	n/a	n/a	n/a
308.0	1.5	12	late	stimulus	n/a	30.0	n/a	n/a	n/a
319.5	0.5	12	late	dm_task_pre	n/a	n/a	n/a	n/a	n/a
320.0	1.08225296498858	12	late	dm_task	1.08225296498858	n/a	4.0	-1.0	n/a
321.0822529649886	0.75	12	late	dm_task_post	n/a	n/a	n/a	n/a	n/a
325.5	0.5	12	late	em_task_pre	n/a	n/a	n/a	n/a	n/a
326.0	1.8181113639729993	12	late	em_task	n/a	n/a	n/a	n/a	20.5274379598189
327.818111363973	0.75	12	late	em_task_post	n/a	n/a	n/a	n/a	n/a
