onset	duration	trial	trial_type	event_type	response_time	value_stimulus	value_reference	response_decision	response_estimation
0.0	1.5	1	late	stimulus	n/a	157.5	n/a	n/a	n/a
11.5	0.5	1	late	dm_task_pre	n/a	n/a	n/a	n/a	n/a
12.0	0.879266832002031	1	late	dm_task	0.879266832002031	n/a	-21.0	1.0	n/a
12.879266832002031	0.75	1	late	dm_task_post	n/a	n/a	n/a	n/a	n/a
17.5	0.5	1	late	em_task_pre	n/a	n/a	n/a	n/a	n/a
18.0	3.925984835001099	1	late	em_task	n/a	n/a	n/a	n/a	141.591066503134
21.9259848350011	0.75	1	late	em_task_post	n/a	n/a	n/a	n/a	n/a
28.0	1.5	2	late	stimulus	n/a	150.0	n/a	n/a	n/a
39.5	0.5	2	late	dm_task_pre	n/a	n/a	n/a	n/a	n/a
40.0	0.783828605002782	2	late	dm_task	0.783828605002782	n/a	-4.0	1.0	n/a
40.78382860500278	0.75	2	late	dm_task_post	n/a	n/a	n/a	n/a	n/a
45.5	0.5	2	late	em_task_pre	n/a	n/a	n/a	n/a	n/a
46.0	2.6469325360013016	2	late	em_task	n/a	n/a	n/a	n/a	152.884594072317
48.6469325360013	0.75	2	late	em_task_post	n/a	n/a	n/a	n/a	n/a
56.0	1.5	3	late	stimulus	n/a	97.5	n/a	n/a	n/a
67.5	0.5	3	late	dm_task_pre	n/a	n/a	n/a	n/a	n/a
68.0	0.754197370999464	3	late	dm_task	0.754197370999464	n/a	4.0	1.0	n/a
68.75419737099946	0.75	3	late	dm_task_post	n/a	n/a	n/a	n/a	n/a
73.5	0.5	3	late	em_task_pre	n/a	n/a	n/a	n/a	n/a
74.0	2.8850347059997006	3	late	em_task	n/a	n/a	n/a	n/a	112.354031309927
76.8850347059997	0.75	3	late	em_task_post	n/a	n/a	n/a	n/a	n/a
84.0	1.5	4	late	stimulus	n/a	52.5	n/a	n/a	n/a
95.5	0.5	4	late	dm_task_pre	n/a	n/a	n/a	n/a	n/a
96.0	0.642619040001591	4	late	dm_task	0.642619040001591	n/a	-4.0	1.0	n/a
96.64261904000159	0.75	4	late	dm_task_post	n/a	n/a	n/a	n/a	n/a
101.5	0.5	4	late	em_task_pre	n/a	n/a	n/a	n/a	n/a
102.0	3.6052364429997006	4	late	em_task	n/a	n/a	n/a	n/a	62.5591620743132
105.6052364429997	0.75	4	late	em_task_post	n/a	n/a	n/a	n/a	n/a
112.0	1.5	5	late	stimulus	n/a	105.0	n/a	n/a	n/a
123.5	0.5	5	late	dm_task_pre	n/a	n/a	n/a	n/a	n/a
124.0	0.497485787000187	5	late	dm_task	0.497485787000187	n/a	-21.0	1.0	n/a
124.49748578700019	0.75	5	late	dm_task_post	n/a	n/a	n/a	n/a	n/a
129.5	0.5	5	late	em_task_pre	n/a	n/a	n/a	n/a	n/a
130.0	2.8444964250011004	5	late	em_task	n/a	n/a	n/a	n/a	119.597470882722
132.8444964250011	0.75	5	late	em_task_post	n/a	n/a	n/a	n/a	n/a
140.0	1.5	6	late	stimulus	n/a	67.5	n/a	n/a	n/a
151.5	0.5	6	late	dm_task_pre	n/a	n/a	n/a	n/a	n/a
152.0	0.767304654000327	6	late	dm_task	0.767304654000327	n/a	21.0	-1.0	n/a
152.76730465400033	0.75	6	late	dm_task_post	n/a	n/a	n/a	n/a	n/a
157.5	0.5	6	late	em_task_pre	n/a	n/a	n/a	n/a	n/a
158.0	3.0141861600023	6	late	em_task	n/a	n/a	n/a	n/a	76.5111733211754
161.0141861600023	0.75	6	late	em_task_post	n/a	n/a	n/a	n/a	n/a
168.0	1.5	7	late	stimulus	n/a	37.5	n/a	n/a	n/a
179.5	0.5	7	late	dm_task_pre	n/a	n/a	n/a	n/a	n/a
180.0	0.591372849001345	7	late	dm_task	0.591372849001345	n/a	-21.0	1.0	n/a
180.59137284900135	0.75	7	late	dm_task_post	n/a	n/a	n/a	n/a	n/a
185.5	0.5	7	late	em_task_pre	n/a	n/a	n/a	n/a	n/a
186.0	3.8016294720001014	7	late	em_task	n/a	n/a	n/a	n/a	48.2617769703968
189.80162947200012	0.75	7	late	em_task_post	n/a	n/a	n/a	n/a	n/a
196.0	1.5	8	late	stimulus	n/a	15.0	n/a	n/a	n/a
207.5	0.5	8	late	dm_task_pre	n/a	n/a	n/a	n/a	n/a
208.0	0.399731416000577	8	late	dm_task	0.399731416000577	n/a	-21.0	-1.0	n/a
208.39973141600058	0.75	8	late	dm_task_post	n/a	n/a	n/a	n/a	n/a
213.5	0.5	8	late	em_task_pre	n/a	n/a	n/a	n/a	n/a
214.0	4.388610592002799	8	late	em_task	n/a	n/a	n/a	n/a	47.6747163833506
218.3886105920028	0.75	8	late	em_task_post	n/a	n/a	n/a	n/a	n/a
224.0	1.5	9	early	stimulus	n/a	135.0	n/a	n/a	n/a
229.5	0.5	9	early	dm_task_pre	n/a	n/a	n/a	n/a	n/a
230.0	1.3236121709997	9	early	dm_task	1.3236121709997	n/a	21.0	-1.0	n/a
231.3236121709997	0.75	9	early	dm_task_post	n/a	n/a	n/a	n/a	n/a
241.5	0.5	9	early	em_task_pre	n/a	n/a	n/a	n/a	n/a
242.0	4.4125788390011	9	early	em_task	n/a	n/a	n/a	n/a	5.24843758021839
246.4125788390011	0.75	9	early	em_task_post	n/a	n/a	n/a	n/a	n/a
252.0	1.5	10	early	stimulus	n/a	82.5	n/a	n/a	n/a
257.5	0.5	10	early	dm_task_pre	n/a	n/a	n/a	n/a	n/a
258.0	0.766974182002741	10	early	dm_task	0.766974182002741	n/a	4.0	-1.0	n/a
258.76697418200274	0.75	10	early	dm_task_post	n/a	n/a	n/a	n/a	n/a
269.5	0.5	10	early	em_task_pre	n/a	n/a	n/a	n/a	n/a
270.0	2.5740176780017983	10	early	em_task	n/a	n/a	n/a	n/a	59.7168517052966
272.5740176780018	0.75	10	early	em_task_post	n/a	n/a	n/a	n/a	n/a
280.0	1.5	11	late	stimulus	n/a	90.0	n/a	n/a	n/a
291.5	0.5	11	late	dm_task_pre	n/a	n/a	n/a	n/a	n/a
292.0	0.926501661000657	11	late	dm_task	0.926501661000657	n/a	21.0	-1.0	n/a
292.92650166100066	0.75	11	late	dm_task_post	n/a	n/a	n/a	n/a	n/a
297.5	0.5	11	late	em_task_pre	n/a	n/a	n/a	n/a	n/a
298.0	3.068830119002101	11	late	em_task	n/a	n/a	n/a	n/a	98.3621735939055
301.0688301190021	0.75	11	late	em_task_post	n/a	n/a	n/a	n/a	n/a
308.0	1.5	12	early	stimulus	n/a	165.0	n/a	n/a	n/a
313.5	0.5	12	early	dm_task_pre	n/a	n/a	n/a	n/a	n/a
314.0	1.5	12	early	dm_task	1.52250534300038	n/a	-4.0	-1.0	n/a
315.5	0.75	12	early	dm_task_post	n/a	n/a	n/a	n/a	n/a
325.5	0.5	12	early	em_task_pre	n/a	n/a	n/a	n/a	n/a
326.0	4.152467238000099	12	early	em_task	n/a	n/a	n/a	n/a	139.539892162611
330.1524672380001	0.75	12	early	em_task_post	n/a	n/a	n/a	n/a	n/a
