onset	duration	trial	trial_type	event_type	response_time	value_stimulus	value_reference	response_decision	response_estimation
0.0	1.5	1	late	stimulus	n/a	90.0	n/a	n/a	n/a
11.5	0.5	1	late	dm_task_pre	n/a	n/a	n/a	n/a	n/a
12.0	0.646488192025572	1	late	dm_task	0.646488192025572	n/a	-21.0	1.0	n/a
12.646488192025572	0.75	1	late	dm_task_post	n/a	n/a	n/a	n/a	n/a
17.5	0.5	1	late	em_task_pre	n/a	n/a	n/a	n/a	n/a
18.0	2.3991620989982003	1	late	em_task	n/a	n/a	n/a	n/a	89.6688966060892
20.3991620989982	0.75	1	late	em_task_post	n/a	n/a	n/a	n/a	n/a
28.0	1.5	2	early	stimulus	n/a	97.5	n/a	n/a	n/a
33.5	0.5	2	early	dm_task_pre	n/a	n/a	n/a	n/a	n/a
34.0	0.637003473995719	2	early	dm_task	0.637003473995719	n/a	0.0	1.0	n/a
34.63700347399572	0.75	2	early	dm_task_post	n/a	n/a	n/a	n/a	n/a
45.5	0.5	2	early	em_task_pre	n/a	n/a	n/a	n/a	n/a
46.0	3.075367028999601	2	early	em_task	n/a	n/a	n/a	n/a	101.618386286858
49.0753670289996	0.75	2	early	em_task_post	n/a	n/a	n/a	n/a	n/a
56.0	1.5	3	late	stimulus	n/a	150.0	n/a	n/a	n/a
67.5	0.5	3	late	dm_task_pre	n/a	n/a	n/a	n/a	n/a
68.0	1.08176399098011	3	late	dm_task	1.08176399098011	n/a	21.0	-1.0	n/a
69.08176399098011	0.75	3	late	dm_task_post	n/a	n/a	n/a	n/a	n/a
73.5	0.5	3	late	em_task_pre	n/a	n/a	n/a	n/a	n/a
74.0	3.1347704399959007	3	late	em_task	n/a	n/a	n/a	n/a	145.602023273224
77.1347704399959	0.75	3	late	em_task_post	n/a	n/a	n/a	n/a	n/a
84.0	1.5	4	early	stimulus	n/a	45.0	n/a	n/a	n/a
89.5	0.5	4	early	dm_task_pre	n/a	n/a	n/a	n/a	n/a
90.0	1.22145086200908	4	early	dm_task	1.22145086200908	n/a	-21.0	1.0	n/a
91.22145086200908	0.75	4	early	dm_task_post	n/a	n/a	n/a	n/a	n/a
101.5	0.5	4	early	em_task_pre	n/a	n/a	n/a	n/a	n/a
102.0	3.0106210749945994	4	early	em_task	n/a	n/a	n/a	n/a	38.5809448431551
105.0106210749946	0.75	4	early	em_task_post	n/a	n/a	n/a	n/a	n/a
112.0	1.5	5	early	stimulus	n/a	67.5	n/a	n/a	n/a
117.5	0.5	5	early	dm_task_pre	n/a	n/a	n/a	n/a	n/a
118.0	0.931231533992104	5	early	dm_task	0.931231533992104	n/a	-21.0	1.0	n/a
118.9312315339921	0.75	5	early	dm_task_post	n/a	n/a	n/a	n/a	n/a
129.5	0.5	5	early	em_task_pre	n/a	n/a	n/a	n/a	n/a
130.0	3.7021342070075	5	early	em_task	n/a	n/a	n/a	n/a	54.353934741612
133.7021342070075	0.75	5	early	em_task_post	n/a	n/a	n/a	n/a	n/a
140.0	1.5	6	early	stimulus	n/a	142.5	n/a	n/a	n/a
145.5	0.5	6	early	dm_task_pre	n/a	n/a	n/a	n/a	n/a
146.0	0.923733134986833	6	early	dm_task	0.923733134986833	n/a	-21.0	1.0	n/a
146.92373313498683	0.75	6	early	dm_task_post	n/a	n/a	n/a	n/a	n/a
157.5	0.5	6	early	em_task_pre	n/a	n/a	n/a	n/a	n/a
158.0	3.0440287580132015	6	early	em_task	n/a	n/a	n/a	n/a	145.980744275546
161.0440287580132	0.75	6	early	em_task_post	n/a	n/a	n/a	n/a	n/a
168.0	1.5	7	late	stimulus	n/a	15.0	n/a	n/a	n/a
179.5	0.5	7	late	dm_task_pre	n/a	n/a	n/a	n/a	n/a
180.0	0.801696448004805	7	late	dm_task	0.801696448004805	n/a	0.0	1.0	n/a
180.8016964480048	0.75	7	late	dm_task_post	n/a	n/a	n/a	n/a	n/a
185.5	0.5	7	late	em_task_pre	n/a	n/a	n/a	n/a	n/a
186.0	2.9213274020003013	7	late	em_task	n/a	n/a	n/a	n/a	18.4180629598189
188.92132740200032	0.75	7	late	em_task_post	n/a	n/a	n/a	n/a	n/a
196.0	1.5	8	late	stimulus	n/a	120.0	n/a	n/a	n/a
207.5	0.5	8	late	dm_task_pre	n/a	n/a	n/a	n/a	n/a
208.0	0.661722506978549	8	late	dm_task	0.661722506978549	n/a	21.0	-1.0	n/a
208.66172250697855	0.75	8	late	dm_task_post	n/a	n/a	n/a	n/a	n/a
213.5	0.5	8	late	em_task_pre	n/a	n/a	n/a	n/a	n/a
214.0	2.0970816339832012	8	late	em_task	n/a	n/a	n/a	n/a	114.491554398625
216.0970816339832	0.75	8	late	em_task_post	n/a	n/a	n/a	n/a	n/a
224.0	1.5	9	late	stimulus	n/a	75.0	n/a	n/a	n/a
235.5	0.5	9	late	dm_task_pre	n/a	n/a	n/a	n/a	n/a
236.0	1.30240735702682	9	late	dm_task	1.30240735702682	n/a	-4.0	-1.0	n/a
237.30240735702682	0.75	9	late	dm_task_post	n/a	n/a	n/a	n/a	n/a
241.5	0.5	9	late	em_task_pre	n/a	n/a	n/a	n/a	n/a
242.0	1.9731914449948995	9	late	em_task	n/a	n/a	n/a	n/a	65.0241647517275
243.9731914449949	0.75	9	late	em_task_post	n/a	n/a	n/a	n/a	n/a
252.0	1.5	10	late	stimulus	n/a	22.5	n/a	n/a	n/a
263.5	0.5	10	late	dm_task_pre	n/a	n/a	n/a	n/a	n/a
264.0	0.67751012800727	10	late	dm_task	0.67751012800727	n/a	-21.0	1.0	n/a
264.67751012800727	0.75	10	late	dm_task_post	n/a	n/a	n/a	n/a	n/a
269.5	0.5	10	late	em_task_pre	n/a	n/a	n/a	n/a	n/a
270.0	3.4308680989779994	10	late	em_task	n/a	n/a	n/a	n/a	22.976493264752
273.430868098978	0.75	10	late	em_task_post	n/a	n/a	n/a	n/a	n/a
280.0	1.5	11	late	stimulus	n/a	172.5	n/a	n/a	n/a
291.5	0.5	11	late	dm_task_pre	n/a	n/a	n/a	n/a	n/a
292.0	0.6879451959976	11	late	dm_task	0.6879451959976	n/a	4.0	-1.0	n/a
292.6879451959976	0.75	11	late	dm_task_post	n/a	n/a	n/a	n/a	n/a
297.5	0.5	11	late	em_task_pre	n/a	n/a	n/a	n/a	n/a
298.0	3.224327712028799	11	late	em_task	n/a	n/a	n/a	n/a	163.140424047547
301.2243277120288	0.75	11	late	em_task_post	n/a	n/a	n/a	n/a	n/a
308.0	1.5	12	late	stimulus	n/a	52.5	n/a	n/a	n/a
319.5	0.5	12	late	dm_task_pre	n/a	n/a	n/a	n/a	n/a
320.0	0.779703797015827	12	late	dm_task	0.779703797015827	n/a	4.0	1.0	n/a
320.7797037970158	0.75	12	late	dm_task_post	n/a	n/a	n/a	n/a	n/a
325.5	0.5	12	late	em_task_pre	n/a	n/a	n/a	n/a	n/a
326.0	1.5990611410234017	12	late	em_task	n/a	n/a	n/a	n/a	62.3639570337553
327.5990611410234	0.75	12	late	em_task_post	n/a	n/a	n/a	n/a	n/a
