onset	duration	trial	trial_type	event_type	response_time	value_stimulus	value_reference	response_decision	response_estimation
0.0	1.5	1	late	stimulus	n/a	157.5	n/a	n/a	n/a
11.5	0.5	1	late	dm_task_pre	n/a	n/a	n/a	n/a	n/a
12.0	0.743545570003334	1	late	dm_task	0.743545570003334	n/a	0.0	-1.0	n/a
12.743545570003334	0.75	1	late	dm_task_post	n/a	n/a	n/a	n/a	n/a
17.5	0.5	1	late	em_task_pre	n/a	n/a	n/a	n/a	n/a
18.0	2.9791917419934	1	late	em_task	n/a	n/a	n/a	n/a	157.409069843155
20.9791917419934	0.75	1	late	em_task_post	n/a	n/a	n/a	n/a	n/a
28.0	1.5	2	late	stimulus	n/a	30.0	n/a	n/a	n/a
39.5	0.5	2	late	dm_task_pre	n/a	n/a	n/a	n/a	n/a
40.0	0.885592715989333	2	late	dm_task	0.885592715989333	n/a	0.0	1.0	n/a
40.88559271598933	0.75	2	late	dm_task_post	n/a	n/a	n/a	n/a	n/a
45.5	0.5	2	late	em_task_pre	n/a	n/a	n/a	n/a	n/a
46.0	3.1546161329898013	2	late	em_task	n/a	n/a	n/a	n/a	33.963309741612
49.1546161329898	0.75	2	late	em_task_post	n/a	n/a	n/a	n/a	n/a
56.0	1.5	3	late	stimulus	n/a	150.0	n/a	n/a	n/a
67.5	0.5	3	late	dm_task_pre	n/a	n/a	n/a	n/a	n/a
68.0	0.594798528996762	3	late	dm_task	0.594798528996762	n/a	0.0	-1.0	n/a
68.59479852899676	0.75	3	late	dm_task_post	n/a	n/a	n/a	n/a	n/a
73.5	0.5	3	late	em_task_pre	n/a	n/a	n/a	n/a	n/a
74.0	2.7316468970092984	3	late	em_task	n/a	n/a	n/a	n/a	141.761994275546
76.7316468970093	0.75	3	late	em_task_post	n/a	n/a	n/a	n/a	n/a
84.0	1.5	4	early	stimulus	n/a	22.5	n/a	n/a	n/a
89.5	0.5	4	early	dm_task_pre	n/a	n/a	n/a	n/a	n/a
90.0	0.801612006005598	4	early	dm_task	0.801612006005598	n/a	4.0	1.0	n/a
90.8016120060056	0.75	4	early	dm_task_post	n/a	n/a	n/a	n/a	n/a
101.5	0.5	4	early	em_task_pre	n/a	n/a	n/a	n/a	n/a
102.0	2.5894758919894016	4	early	em_task	n/a	n/a	n/a	n/a	43.7305629598189
104.5894758919894	0.75	4	early	em_task_post	n/a	n/a	n/a	n/a	n/a
112.0	1.5	5	late	stimulus	n/a	142.5	n/a	n/a	n/a
123.5	0.5	5	late	dm_task_pre	n/a	n/a	n/a	n/a	n/a
124.0	0.663054377015214	5	late	dm_task	0.663054377015214	n/a	-21.0	1.0	n/a
124.66305437701521	0.75	5	late	dm_task_post	n/a	n/a	n/a	n/a	n/a
129.5	0.5	5	late	em_task_pre	n/a	n/a	n/a	n/a	n/a
130.0	1.7478989619994998	5	late	em_task	n/a	n/a	n/a	n/a	141.210304398625
131.7478989619995	0.75	5	late	em_task_post	n/a	n/a	n/a	n/a	n/a
140.0	1.5	6	late	stimulus	n/a	82.5	n/a	n/a	n/a
151.5	0.5	6	late	dm_task_pre	n/a	n/a	n/a	n/a	n/a
152.0	0.472684234002372	6	late	dm_task	0.472684234002372	n/a	-21.0	1.0	n/a
152.47268423400237	0.75	6	late	dm_task_post	n/a	n/a	n/a	n/a	n/a
157.5	0.5	6	late	em_task_pre	n/a	n/a	n/a	n/a	n/a
158.0	3.1087160439928994	6	late	em_task	n/a	n/a	n/a	n/a	70.6491647517275
161.1087160439929	0.75	6	late	em_task_post	n/a	n/a	n/a	n/a	n/a
168.0	1.5	7	early	stimulus	n/a	60.0	n/a	n/a	n/a
173.5	0.5	7	early	dm_task_pre	n/a	n/a	n/a	n/a	n/a
174.0	0.511206761002541	7	early	dm_task	0.511206761002541	n/a	0.0	1.0	n/a
174.51120676100254	0.75	7	early	dm_task_post	n/a	n/a	n/a	n/a	n/a
185.5	0.5	7	early	em_task_pre	n/a	n/a	n/a	n/a	n/a
186.0	1.482538979005799	7	early	em_task	n/a	n/a	n/a	n/a	60.945243264752
187.4825389790058	0.75	7	early	em_task_post	n/a	n/a	n/a	n/a	n/a
196.0	1.5	8	early	stimulus	n/a	135.0	n/a	n/a	n/a
201.5	0.5	8	early	dm_task_pre	n/a	n/a	n/a	n/a	n/a
202.0	0.555279299995163	8	early	dm_task	0.555279299995163	n/a	4.0	-1.0	n/a
202.55527929999516	0.75	8	early	dm_task_post	n/a	n/a	n/a	n/a	n/a
213.5	0.5	8	early	em_task_pre	n/a	n/a	n/a	n/a	n/a
214.0	2.5093390399998015	8	early	em_task	n/a	n/a	n/a	n/a	127.984174047547
216.50933903999982	0.75	8	early	em_task_post	n/a	n/a	n/a	n/a	n/a
224.0	1.5	9	early	stimulus	n/a	112.5	n/a	n/a	n/a
229.5	0.5	9	early	dm_task_pre	n/a	n/a	n/a	n/a	n/a
230.0	0.52991215599468	9	early	dm_task	0.52991215599468	n/a	-4.0	1.0	n/a
230.52991215599468	0.75	9	early	dm_task_post	n/a	n/a	n/a	n/a	n/a
241.5	0.5	9	early	em_task_pre	n/a	n/a	n/a	n/a	n/a
242.0	4.169360205007301	9	early	em_task	n/a	n/a	n/a	n/a	120.020207033755
246.1693602050073	0.75	9	early	em_task_post	n/a	n/a	n/a	n/a	n/a
252.0	1.5	10	late	stimulus	n/a	105.0	n/a	n/a	n/a
263.5	0.5	10	late	dm_task_pre	n/a	n/a	n/a	n/a	n/a
264.0	0.674886925989995	10	late	dm_task	0.674886925989995	n/a	4.0	1.0	n/a
264.67488692599	0.75	10	late	dm_task_post	n/a	n/a	n/a	n/a	n/a
269.5	0.5	10	late	em_task_pre	n/a	n/a	n/a	n/a	n/a
270.0	3.756939434999399	10	late	em_task	n/a	n/a	n/a	n/a	129.802605518103
273.7569394349994	0.75	10	late	em_task_post	n/a	n/a	n/a	n/a	n/a
280.0	1.5	11	late	stimulus	n/a	15.0	n/a	n/a	n/a
291.5	0.5	11	late	dm_task_pre	n/a	n/a	n/a	n/a	n/a
292.0	0.516331627004547	11	late	dm_task	0.516331627004547	n/a	0.0	1.0	n/a
292.51633162700455	0.75	11	late	dm_task_post	n/a	n/a	n/a	n/a	n/a
297.5	0.5	11	late	em_task_pre	n/a	n/a	n/a	n/a	n/a
298.0	4.2883109030080995	11	late	em_task	n/a	n/a	n/a	n/a	33.1116706154292
302.2883109030081	0.75	11	late	em_task_post	n/a	n/a	n/a	n/a	n/a
308.0	1.5	12	early	stimulus	n/a	52.5	n/a	n/a	n/a
313.5	0.5	12	early	dm_task_pre	n/a	n/a	n/a	n/a	n/a
314.0	0.890857727994444	12	early	dm_task	0.890857727994444	n/a	-4.0	1.0	n/a
314.89085772799444	0.75	12	early	dm_task_post	n/a	n/a	n/a	n/a	n/a
325.5	0.5	12	early	em_task_pre	n/a	n/a	n/a	n/a	n/a
326.0	2.6127018599946013	12	early	em_task	n/a	n/a	n/a	n/a	56.8606684047365
328.6127018599946	0.75	12	early	em_task_post	n/a	n/a	n/a	n/a	n/a
