onset	duration	trial	trial_type	event_type	response_time	value_stimulus	value_reference	response_decision	response_estimation
0.0	1.5	1	early	stimulus	n/a	82.5	n/a	n/a	n/a
5.5	0.5	1	early	dm_task_pre	n/a	n/a	n/a	n/a	n/a
6.0	1.11507590699875	1	early	dm_task	1.11507590699875	n/a	0.0	1.0	n/a
7.11507590699875	0.75	1	early	dm_task_post	n/a	n/a	n/a	n/a	n/a
17.5	0.5	1	early	em_task_pre	n/a	n/a	n/a	n/a	n/a
18.0	2.7430699989999994	1	early	em_task	n/a	n/a	n/a	n/a	81.3130975761492
20.743069999	0.75	1	early	em_task_post	n/a	n/a	n/a	n/a	n/a
28.0	1.5	2	late	stimulus	n/a	45.0	n/a	n/a	n/a
39.5	0.5	2	late	dm_task_pre	n/a	n/a	n/a	n/a	n/a
40.0	0.700119273000382	2	late	dm_task	0.700119273000382	n/a	-21.0	1.0	n/a
40.70011927300038	0.75	2	late	dm_task_post	n/a	n/a	n/a	n/a	n/a
45.5	0.5	2	late	em_task_pre	n/a	n/a	n/a	n/a	n/a
46.0	3.5132518529990016	2	late	em_task	n/a	n/a	n/a	n/a	27.7951085323134
49.513251852999005	0.75	2	late	em_task_post	n/a	n/a	n/a	n/a	n/a
56.0	1.5	3	early	stimulus	n/a	97.5	n/a	n/a	n/a
61.5	0.5	3	early	dm_task_pre	n/a	n/a	n/a	n/a	n/a
62.0	0.555381574999046	3	early	dm_task	0.555381574999046	n/a	21.0	-1.0	n/a
62.555381574999046	0.75	3	early	dm_task_post	n/a	n/a	n/a	n/a	n/a
73.5	0.5	3	early	em_task_pre	n/a	n/a	n/a	n/a	n/a
74.0	1.9687961769996	3	early	em_task	n/a	n/a	n/a	n/a	97.2238807270748
75.9687961769996	0.75	3	early	em_task_post	n/a	n/a	n/a	n/a	n/a
84.0	1.5	4	late	stimulus	n/a	127.5	n/a	n/a	n/a
95.5	0.5	4	late	dm_task_pre	n/a	n/a	n/a	n/a	n/a
96.0	0.807832839000184	4	late	dm_task	0.807832839000184	n/a	-4.0	-1.0	n/a
96.80783283900018	0.75	4	late	dm_task_post	n/a	n/a	n/a	n/a	n/a
101.5	0.5	4	late	em_task_pre	n/a	n/a	n/a	n/a	n/a
102.0	1.4931425569993984	4	late	em_task	n/a	n/a	n/a	n/a	128.082315255463
103.4931425569994	0.75	4	late	em_task_post	n/a	n/a	n/a	n/a	n/a
112.0	1.5	5	late	stimulus	n/a	22.5	n/a	n/a	n/a
123.5	0.5	5	late	dm_task_pre	n/a	n/a	n/a	n/a	n/a
124.0	0.761818213999504	5	late	dm_task	0.761818213999504	n/a	0.0	-1.0	n/a
124.7618182139995	0.75	5	late	dm_task_post	n/a	n/a	n/a	n/a	n/a
129.5	0.5	5	late	em_task_pre	n/a	n/a	n/a	n/a	n/a
130.0	2.3509558789992013	5	late	em_task	n/a	n/a	n/a	n/a	28.1633888949424
132.3509558789992	0.75	5	late	em_task_post	n/a	n/a	n/a	n/a	n/a
140.0	1.5	6	early	stimulus	n/a	172.5	n/a	n/a	n/a
145.5	0.5	6	early	dm_task_pre	n/a	n/a	n/a	n/a	n/a
146.0	0.720459078000204	6	early	dm_task	0.720459078000204	n/a	0.0	-1.0	n/a
146.7204590780002	0.75	6	early	dm_task_post	n/a	n/a	n/a	n/a	n/a
157.5	0.5	6	early	em_task_pre	n/a	n/a	n/a	n/a	n/a
158.0	2.536046367998999	6	early	em_task	n/a	n/a	n/a	n/a	165.508784262374
160.536046367999	0.75	6	early	em_task_post	n/a	n/a	n/a	n/a	n/a
168.0	1.5	7	early	stimulus	n/a	150.0	n/a	n/a	n/a
173.5	0.5	7	early	dm_task_pre	n/a	n/a	n/a	n/a	n/a
174.0	0.748300535999078	7	early	dm_task	0.748300535999078	n/a	0.0	-1.0	n/a
174.74830053599908	0.75	7	early	dm_task_post	n/a	n/a	n/a	n/a	n/a
185.5	0.5	7	early	em_task_pre	n/a	n/a	n/a	n/a	n/a
186.0	4.5	7	early	em_task	n/a	n/a	n/a	n/a	n/a
190.5	0.75	7	early	em_task_post	n/a	n/a	n/a	n/a	n/a
196.0	1.5	8	early	stimulus	n/a	105.0	n/a	n/a	n/a
201.5	0.5	8	early	dm_task_pre	n/a	n/a	n/a	n/a	n/a
202.0	0.495244824998736	8	early	dm_task	0.495244824998736	n/a	4.0	-1.0	n/a
202.49524482499874	0.75	8	early	dm_task_post	n/a	n/a	n/a	n/a	n/a
213.5	0.5	8	early	em_task_pre	n/a	n/a	n/a	n/a	n/a
214.0	2.0064034129990986	8	early	em_task	n/a	n/a	n/a	n/a	101.964221429879
216.0064034129991	0.75	8	early	em_task_post	n/a	n/a	n/a	n/a	n/a
224.0	1.5	9	early	stimulus	n/a	90.0	n/a	n/a	n/a
229.5	0.5	9	early	dm_task_pre	n/a	n/a	n/a	n/a	n/a
230.0	0.616533942999013	9	early	dm_task	0.616533942999013	n/a	21.0	-1.0	n/a
230.616533942999	0.75	9	early	dm_task_post	n/a	n/a	n/a	n/a	n/a
241.5	0.5	9	early	em_task_pre	n/a	n/a	n/a	n/a	n/a
242.0	1.3780783549992002	9	early	em_task	n/a	n/a	n/a	n/a	90.6283356515335
243.3780783549992	0.75	9	early	em_task_post	n/a	n/a	n/a	n/a	n/a
252.0	1.5	10	early	stimulus	n/a	0.0	n/a	n/a	n/a
257.5	0.5	10	early	dm_task_pre	n/a	n/a	n/a	n/a	n/a
258.0	0.687207136999859	10	early	dm_task	0.687207136999859	n/a	21.0	-1.0	n/a
258.68720713699986	0.75	10	early	dm_task_post	n/a	n/a	n/a	n/a	n/a
269.5	0.5	10	early	em_task_pre	n/a	n/a	n/a	n/a	n/a
270.0	1.7817218660002005	10	early	em_task	n/a	n/a	n/a	n/a	179.944281276405
271.7817218660002	0.75	10	early	em_task_post	n/a	n/a	n/a	n/a	n/a
280.0	1.5	11	early	stimulus	n/a	112.5	n/a	n/a	n/a
285.5	0.5	11	early	dm_task_pre	n/a	n/a	n/a	n/a	n/a
286.0	0.767472296000051	11	early	dm_task	0.767472296000051	n/a	-4.0	1.0	n/a
286.76747229600005	0.75	11	early	dm_task_post	n/a	n/a	n/a	n/a	n/a
297.5	0.5	11	early	em_task_pre	n/a	n/a	n/a	n/a	n/a
298.0	2.9540532550000016	11	early	em_task	n/a	n/a	n/a	n/a	124.77184739366
300.954053255	0.75	11	early	em_task_post	n/a	n/a	n/a	n/a	n/a
308.0	1.5	12	late	stimulus	n/a	15.0	n/a	n/a	n/a
319.5	0.5	12	late	dm_task_pre	n/a	n/a	n/a	n/a	n/a
320.0	0.925460042999475	12	late	dm_task	0.925460042999475	n/a	0.0	1.0	n/a
320.9254600429995	0.75	12	late	dm_task_post	n/a	n/a	n/a	n/a	n/a
325.5	0.5	12	late	em_task_pre	n/a	n/a	n/a	n/a	n/a
326.0	3.491090692999901	12	late	em_task	n/a	n/a	n/a	n/a	28.007685212433
329.4910906929999	0.75	12	late	em_task_post	n/a	n/a	n/a	n/a	n/a
