onset	duration	trial	trial_type	event_type	response_time	value_stimulus	value_reference	response_decision	response_estimation
0.0	1.5	1	late	stimulus	n/a	45.0	n/a	n/a	n/a
11.5	0.5	1	late	dm_task_pre	n/a	n/a	n/a	n/a	n/a
12.0	1.41126375796739	1	late	dm_task	1.41126375796739	n/a	-4.0	1.0	n/a
13.41126375796739	0.75	1	late	dm_task_post	n/a	n/a	n/a	n/a	n/a
17.5	0.5	1	late	em_task_pre	n/a	n/a	n/a	n/a	n/a
18.0	2.660239988006701	1	late	em_task	n/a	n/a	n/a	n/a	39.0534935180071
20.6602399880067	0.75	1	late	em_task_post	n/a	n/a	n/a	n/a	n/a
28.0	1.5	2	early	stimulus	n/a	150.0	n/a	n/a	n/a
33.5	0.5	2	early	dm_task_pre	n/a	n/a	n/a	n/a	n/a
34.0	0.954729813965969	2	early	dm_task	0.954729813965969	n/a	21.0	1.0	n/a
34.95472981396597	0.75	2	early	dm_task_post	n/a	n/a	n/a	n/a	n/a
45.5	0.5	2	early	em_task_pre	n/a	n/a	n/a	n/a	n/a
46.0	1.5995586590142992	2	early	em_task	n/a	n/a	n/a	n/a	143.353398216548
47.5995586590143	0.75	2	early	em_task_post	n/a	n/a	n/a	n/a	n/a
56.0	1.5	3	late	stimulus	n/a	142.5	n/a	n/a	n/a
67.5	0.5	3	late	dm_task_pre	n/a	n/a	n/a	n/a	n/a
68.0	0.724170649074949	3	late	dm_task	0.724170649074949	n/a	21.0	-1.0	n/a
68.72417064907495	0.75	3	late	dm_task_post	n/a	n/a	n/a	n/a	n/a
73.5	0.5	3	late	em_task_pre	n/a	n/a	n/a	n/a	n/a
74.0	1.8885828390484996	3	late	em_task	n/a	n/a	n/a	n/a	134.037510159205
75.8885828390485	0.75	3	late	em_task_post	n/a	n/a	n/a	n/a	n/a
84.0	1.5	4	early	stimulus	n/a	7.5	n/a	n/a	n/a
89.5	0.5	4	early	dm_task_pre	n/a	n/a	n/a	n/a	n/a
90.0	0.950972583028488	4	early	dm_task	0.950972583028488	n/a	21.0	-1.0	n/a
90.95097258302849	0.75	4	early	dm_task_post	n/a	n/a	n/a	n/a	n/a
101.5	0.5	4	early	em_task_pre	n/a	n/a	n/a	n/a	n/a
102.0	2.0306183430366005	4	early	em_task	n/a	n/a	n/a	n/a	29.6402927013967
104.0306183430366	0.75	4	early	em_task_post	n/a	n/a	n/a	n/a	n/a
112.0	1.5	5	late	stimulus	n/a	127.5	n/a	n/a	n/a
123.5	0.5	5	late	dm_task_pre	n/a	n/a	n/a	n/a	n/a
124.0	1.42058650602121	5	late	dm_task	1.42058650602121	n/a	4.0	-1.0	n/a
125.42058650602121	0.75	5	late	dm_task_post	n/a	n/a	n/a	n/a	n/a
129.5	0.5	5	late	em_task_pre	n/a	n/a	n/a	n/a	n/a
130.0	3.352441709023001	5	late	em_task	n/a	n/a	n/a	n/a	128.569353129853
133.352441709023	0.75	5	late	em_task_post	n/a	n/a	n/a	n/a	n/a
140.0	1.5	6	early	stimulus	n/a	0.0	n/a	n/a	n/a
145.5	0.5	6	early	dm_task_pre	n/a	n/a	n/a	n/a	n/a
146.0	0.663697544019669	6	early	dm_task	0.663697544019669	n/a	-4.0	1.0	n/a
146.66369754401967	0.75	6	early	dm_task_post	n/a	n/a	n/a	n/a	n/a
157.5	0.5	6	early	em_task_pre	n/a	n/a	n/a	n/a	n/a
158.0	1.6581574360607014	6	early	em_task	n/a	n/a	n/a	n/a	175.774388808817
159.6581574360607	0.75	6	early	em_task_post	n/a	n/a	n/a	n/a	n/a
168.0	1.5	7	early	stimulus	n/a	82.5	n/a	n/a	n/a
173.5	0.5	7	early	dm_task_pre	n/a	n/a	n/a	n/a	n/a
174.0	0.652528128004633	7	early	dm_task	0.652528128004633	n/a	4.0	-1.0	n/a
174.65252812800463	0.75	7	early	dm_task_post	n/a	n/a	n/a	n/a	n/a
185.5	0.5	7	early	em_task_pre	n/a	n/a	n/a	n/a	n/a
186.0	2.6309923400404003	7	early	em_task	n/a	n/a	n/a	n/a	82.9486621847656
188.6309923400404	0.75	7	early	em_task_post	n/a	n/a	n/a	n/a	n/a
196.0	1.5	8	early	stimulus	n/a	67.5	n/a	n/a	n/a
201.5	0.5	8	early	dm_task_pre	n/a	n/a	n/a	n/a	n/a
202.0	0.576446305029094	8	early	dm_task	0.576446305029094	n/a	-4.0	-1.0	n/a
202.5764463050291	0.75	8	early	dm_task_post	n/a	n/a	n/a	n/a	n/a
213.5	0.5	8	early	em_task_pre	n/a	n/a	n/a	n/a	n/a
214.0	2.5041286710183996	8	early	em_task	n/a	n/a	n/a	n/a	73.8544198661512
216.5041286710184	0.75	8	early	em_task_post	n/a	n/a	n/a	n/a	n/a
224.0	1.5	9	early	stimulus	n/a	22.5	n/a	n/a	n/a
229.5	0.5	9	early	dm_task_pre	n/a	n/a	n/a	n/a	n/a
230.0	0.632204303983599	9	early	dm_task	0.632204303983599	n/a	-21.0	1.0	n/a
230.6322043039836	0.75	9	early	dm_task_post	n/a	n/a	n/a	n/a	n/a
241.5	0.5	9	early	em_task_pre	n/a	n/a	n/a	n/a	n/a
242.0	2.7616857300745004	9	early	em_task	n/a	n/a	n/a	n/a	27.303022726524
244.7616857300745	0.75	9	early	em_task_post	n/a	n/a	n/a	n/a	n/a
252.0	1.5	10	early	stimulus	n/a	75.0	n/a	n/a	n/a
257.5	0.5	10	early	dm_task_pre	n/a	n/a	n/a	n/a	n/a
258.0	0.789330973057076	10	early	dm_task	0.789330973057076	n/a	-4.0	-1.0	n/a
258.7893309730571	0.75	10	early	dm_task_post	n/a	n/a	n/a	n/a	n/a
269.5	0.5	10	early	em_task_pre	n/a	n/a	n/a	n/a	n/a
270.0	1.9173666500719015	10	early	em_task	n/a	n/a	n/a	n/a	56.3332739106858
271.9173666500719	0.75	10	early	em_task_post	n/a	n/a	n/a	n/a	n/a
280.0	1.5	11	early	stimulus	n/a	112.5	n/a	n/a	n/a
285.5	0.5	11	early	dm_task_pre	n/a	n/a	n/a	n/a	n/a
286.0	0.528615429997444	11	early	dm_task	0.528615429997444	n/a	21.0	-1.0	n/a
286.52861542999744	0.75	11	early	dm_task_post	n/a	n/a	n/a	n/a	n/a
297.5	0.5	11	early	em_task_pre	n/a	n/a	n/a	n/a	n/a
298.0	1.8572946890489987	11	early	em_task	n/a	n/a	n/a	n/a	123.575735918256
299.857294689049	0.75	11	early	em_task_post	n/a	n/a	n/a	n/a	n/a
308.0	1.5	12	early	stimulus	n/a	15.0	n/a	n/a	n/a
313.5	0.5	12	early	dm_task_pre	n/a	n/a	n/a	n/a	n/a
314.0	0.717946651973762	12	early	dm_task	0.717946651973762	n/a	0.0	1.0	n/a
314.71794665197376	0.75	12	early	dm_task_post	n/a	n/a	n/a	n/a	n/a
325.5	0.5	12	early	em_task_pre	n/a	n/a	n/a	n/a	n/a
326.0	2.114740498014701	12	early	em_task	n/a	n/a	n/a	n/a	21.8945528331401
328.1147404980147	0.75	12	early	em_task_post	n/a	n/a	n/a	n/a	n/a
