onset	duration	trial	trial_type	event_type	response_time	value_stimulus	value_reference	response_decision	response_estimation
0.0	1.5	1	early	stimulus	n/a	52.5	n/a	n/a	n/a
5.5	0.5	1	early	dm_task_pre	n/a	n/a	n/a	n/a	n/a
6.0	0.857954248000169	1	early	dm_task	0.857954248000169	n/a	-21.0	1.0	n/a
6.857954248000169	0.75	1	early	dm_task_post	n/a	n/a	n/a	n/a	n/a
17.5	0.5	1	early	em_task_pre	n/a	n/a	n/a	n/a	n/a
18.0	3.2683196559992	1	early	em_task	n/a	n/a	n/a	n/a	47.5733581528127
21.2683196559992	0.75	1	early	em_task_post	n/a	n/a	n/a	n/a	n/a
28.0	1.5	2	late	stimulus	n/a	142.5	n/a	n/a	n/a
39.5	0.5	2	late	dm_task_pre	n/a	n/a	n/a	n/a	n/a
40.0	0.79403995499888	2	late	dm_task	0.79403995499888	n/a	21.0	-1.0	n/a
40.79403995499888	0.75	2	late	dm_task_post	n/a	n/a	n/a	n/a	n/a
45.5	0.5	2	late	em_task_pre	n/a	n/a	n/a	n/a	n/a
46.0	3.6748619119971018	2	late	em_task	n/a	n/a	n/a	n/a	150.037751953217
49.6748619119971	0.75	2	late	em_task_post	n/a	n/a	n/a	n/a	n/a
56.0	1.5	3	early	stimulus	n/a	105.0	n/a	n/a	n/a
61.5	0.5	3	early	dm_task_pre	n/a	n/a	n/a	n/a	n/a
62.0	0.620213184996828	3	early	dm_task	0.620213184996828	n/a	-21.0	1.0	n/a
62.62021318499683	0.75	3	early	dm_task_post	n/a	n/a	n/a	n/a	n/a
73.5	0.5	3	early	em_task_pre	n/a	n/a	n/a	n/a	n/a
74.0	3.3146447189973998	3	early	em_task	n/a	n/a	n/a	n/a	123.072118614507
77.3146447189974	0.75	3	early	em_task_post	n/a	n/a	n/a	n/a	n/a
84.0	1.5	4	late	stimulus	n/a	97.5	n/a	n/a	n/a
95.5	0.5	4	late	dm_task_pre	n/a	n/a	n/a	n/a	n/a
96.0	1.0902297749999	4	late	dm_task	1.0902297749999	n/a	21.0	-1.0	n/a
97.0902297749999	0.75	4	late	dm_task_post	n/a	n/a	n/a	n/a	n/a
101.5	0.5	4	late	em_task_pre	n/a	n/a	n/a	n/a	n/a
102.0	4.5	4	late	em_task	n/a	n/a	n/a	n/a	n/a
106.5	0.75	4	late	em_task_post	n/a	n/a	n/a	n/a	n/a
112.0	1.5	5	early	stimulus	n/a	150.0	n/a	n/a	n/a
117.5	0.5	5	early	dm_task_pre	n/a	n/a	n/a	n/a	n/a
118.0	0.782695855999918	5	early	dm_task	0.782695855999918	n/a	-21.0	1.0	n/a
118.78269585599992	0.75	5	early	dm_task_post	n/a	n/a	n/a	n/a	n/a
129.5	0.5	5	early	em_task_pre	n/a	n/a	n/a	n/a	n/a
130.0	2.794467376999801	5	early	em_task	n/a	n/a	n/a	n/a	159.242403340743
132.7944673769998	0.75	5	early	em_task_post	n/a	n/a	n/a	n/a	n/a
140.0	1.5	6	late	stimulus	n/a	15.0	n/a	n/a	n/a
151.5	0.5	6	late	dm_task_pre	n/a	n/a	n/a	n/a	n/a
152.0	0.937099438997393	6	late	dm_task	0.937099438997393	n/a	-4.0	1.0	n/a
152.9370994389974	0.75	6	late	dm_task_post	n/a	n/a	n/a	n/a	n/a
157.5	0.5	6	late	em_task_pre	n/a	n/a	n/a	n/a	n/a
158.0	4.101228416999199	6	late	em_task	n/a	n/a	n/a	n/a	17.1636246599575
162.1012284169992	0.75	6	late	em_task_post	n/a	n/a	n/a	n/a	n/a
168.0	1.5	7	early	stimulus	n/a	82.5	n/a	n/a	n/a
173.5	0.5	7	early	dm_task_pre	n/a	n/a	n/a	n/a	n/a
174.0	0.762785241997335	7	early	dm_task	0.762785241997335	n/a	-4.0	-1.0	n/a
174.76278524199734	0.75	7	early	dm_task_post	n/a	n/a	n/a	n/a	n/a
185.5	0.5	7	early	em_task_pre	n/a	n/a	n/a	n/a	n/a
186.0	2.9917613959988003	7	early	em_task	n/a	n/a	n/a	n/a	75.7328432007909
188.9917613959988	0.75	7	early	em_task_post	n/a	n/a	n/a	n/a	n/a
196.0	1.5	8	early	stimulus	n/a	60.0	n/a	n/a	n/a
201.5	0.5	8	early	dm_task_pre	n/a	n/a	n/a	n/a	n/a
202.0	0.802382616999239	8	early	dm_task	0.802382616999239	n/a	-4.0	1.0	n/a
202.80238261699924	0.75	8	early	dm_task_post	n/a	n/a	n/a	n/a	n/a
213.5	0.5	8	early	em_task_pre	n/a	n/a	n/a	n/a	n/a
214.0	3.3977733649990007	8	early	em_task	n/a	n/a	n/a	n/a	62.218775323313
217.397773364999	0.75	8	early	em_task_post	n/a	n/a	n/a	n/a	n/a
224.0	1.5	9	early	stimulus	n/a	22.5	n/a	n/a	n/a
229.5	0.5	9	early	dm_task_pre	n/a	n/a	n/a	n/a	n/a
230.0	0.65859381199698	9	early	dm_task	0.65859381199698	n/a	-4.0	-1.0	n/a
230.65859381199698	0.75	9	early	dm_task_post	n/a	n/a	n/a	n/a	n/a
241.5	0.5	9	early	em_task_pre	n/a	n/a	n/a	n/a	n/a
242.0	3.7874482329971	9	early	em_task	n/a	n/a	n/a	n/a	15.0015097746756
245.7874482329971	0.75	9	early	em_task_post	n/a	n/a	n/a	n/a	n/a
252.0	1.5	10	late	stimulus	n/a	0.0	n/a	n/a	n/a
263.5	0.5	10	late	dm_task_pre	n/a	n/a	n/a	n/a	n/a
264.0	1.01269564799804	10	late	dm_task	1.01269564799804	n/a	-4.0	-1.0	n/a
265.01269564799804	0.75	10	late	dm_task_post	n/a	n/a	n/a	n/a	n/a
269.5	0.5	10	late	em_task_pre	n/a	n/a	n/a	n/a	n/a
270.0	3.6437825339999	10	late	em_task	n/a	n/a	n/a	n/a	159.763992005286
273.6437825339999	0.75	10	late	em_task_post	n/a	n/a	n/a	n/a	n/a
280.0	1.5	11	early	stimulus	n/a	135.0	n/a	n/a	n/a
285.5	0.5	11	early	dm_task_pre	n/a	n/a	n/a	n/a	n/a
286.0	1.5	11	early	dm_task	1.72217856299903	n/a	0.0	-1.0	n/a
287.5	0.75	11	early	dm_task_post	n/a	n/a	n/a	n/a	n/a
297.5	0.5	11	early	em_task_pre	n/a	n/a	n/a	n/a	n/a
298.0	3.066965129997701	11	early	em_task	n/a	n/a	n/a	n/a	140.463421366501
301.0669651299977	0.75	11	early	em_task_post	n/a	n/a	n/a	n/a	n/a
308.0	1.5	12	early	stimulus	n/a	7.5	n/a	n/a	n/a
313.5	0.5	12	early	dm_task_pre	n/a	n/a	n/a	n/a	n/a
314.0	0.961555269997916	12	early	dm_task	0.961555269997916	n/a	-21.0	1.0	n/a
314.9615552699979	0.75	12	early	dm_task_post	n/a	n/a	n/a	n/a	n/a
325.5	0.5	12	early	em_task_pre	n/a	n/a	n/a	n/a	n/a
326.0	2.6556748369985	12	early	em_task	n/a	n/a	n/a	n/a	18.3043899782485
328.6556748369985	0.75	12	early	em_task_post	n/a	n/a	n/a	n/a	n/a
