onset	duration	trial	trial_type	event_type	response_time	value_stimulus	value_reference	response_decision	response_estimation
0.0	1.5	1	early	stimulus	n/a	127.5	n/a	n/a	n/a
5.5	0.5	1	early	dm_task_pre	n/a	n/a	n/a	n/a	n/a
6.0	0.470593292964622	1	early	dm_task	0.470593292964622	n/a	-21.0	1.0	n/a
6.470593292964622	0.75	1	early	dm_task_post	n/a	n/a	n/a	n/a	n/a
17.5	0.5	1	early	em_task_pre	n/a	n/a	n/a	n/a	n/a
18.0	1.8662731610239014	1	early	em_task	n/a	n/a	n/a	n/a	126.441340981129
19.8662731610239	0.75	1	early	em_task_post	n/a	n/a	n/a	n/a	n/a
28.0	1.5	2	late	stimulus	n/a	120.0	n/a	n/a	n/a
39.5	0.5	2	late	dm_task_pre	n/a	n/a	n/a	n/a	n/a
40.0	0.490095319924876	2	late	dm_task	0.490095319924876	n/a	0.0	1.0	n/a
40.490095319924876	0.75	2	late	dm_task_post	n/a	n/a	n/a	n/a	n/a
45.5	0.5	2	late	em_task_pre	n/a	n/a	n/a	n/a	n/a
46.0	1.988527119858201	2	late	em_task	n/a	n/a	n/a	n/a	135.156247480836
47.988527119858205	0.75	2	late	em_task_post	n/a	n/a	n/a	n/a	n/a
56.0	1.5	3	early	stimulus	n/a	60.0	n/a	n/a	n/a
61.5	0.5	3	early	dm_task_pre	n/a	n/a	n/a	n/a	n/a
62.0	0.481612524949014	3	early	dm_task	0.481612524949014	n/a	21.0	-1.0	n/a
62.481612524949014	0.75	3	early	dm_task_post	n/a	n/a	n/a	n/a	n/a
73.5	0.5	3	early	em_task_pre	n/a	n/a	n/a	n/a	n/a
74.0	2.360992335015901	3	early	em_task	n/a	n/a	n/a	n/a	65.2509846927925
76.36099233501591	0.75	3	early	em_task_post	n/a	n/a	n/a	n/a	n/a
84.0	1.5	4	early	stimulus	n/a	97.5	n/a	n/a	n/a
89.5	0.5	4	early	dm_task_pre	n/a	n/a	n/a	n/a	n/a
90.0	0.505880879005417	4	early	dm_task	0.505880879005417	n/a	21.0	-1.0	n/a
90.50588087900542	0.75	4	early	dm_task_post	n/a	n/a	n/a	n/a	n/a
101.5	0.5	4	early	em_task_pre	n/a	n/a	n/a	n/a	n/a
102.0	2.1685706679709007	4	early	em_task	n/a	n/a	n/a	n/a	106.945360599087
104.1685706679709	0.75	4	early	em_task_post	n/a	n/a	n/a	n/a	n/a
112.0	1.5	5	early	stimulus	n/a	157.5	n/a	n/a	n/a
117.5	0.5	5	early	dm_task_pre	n/a	n/a	n/a	n/a	n/a
118.0	0.645955856889486	5	early	dm_task	0.645955856889486	n/a	-4.0	-1.0	n/a
118.64595585688949	0.75	5	early	dm_task_post	n/a	n/a	n/a	n/a	n/a
129.5	0.5	5	early	em_task_pre	n/a	n/a	n/a	n/a	n/a
130.0	2.2074890038929986	5	early	em_task	n/a	n/a	n/a	n/a	153.13247566869
132.207489003893	0.75	5	early	em_task_post	n/a	n/a	n/a	n/a	n/a
140.0	1.5	6	late	stimulus	n/a	172.5	n/a	n/a	n/a
151.5	0.5	6	late	dm_task_pre	n/a	n/a	n/a	n/a	n/a
152.0	0.667641859967262	6	late	dm_task	0.667641859967262	n/a	-4.0	-1.0	n/a
152.66764185996726	0.75	6	late	dm_task_post	n/a	n/a	n/a	n/a	n/a
157.5	0.5	6	late	em_task_pre	n/a	n/a	n/a	n/a	n/a
158.0	2.215452437987601	6	late	em_task	n/a	n/a	n/a	n/a	159.424227545959
160.2154524379876	0.75	6	late	em_task_post	n/a	n/a	n/a	n/a	n/a
168.0	1.5	7	early	stimulus	n/a	30.0	n/a	n/a	n/a
173.5	0.5	7	early	dm_task_pre	n/a	n/a	n/a	n/a	n/a
174.0	0.475900887977332	7	early	dm_task	0.475900887977332	n/a	-4.0	1.0	n/a
174.47590088797733	0.75	7	early	dm_task_post	n/a	n/a	n/a	n/a	n/a
185.5	0.5	7	early	em_task_pre	n/a	n/a	n/a	n/a	n/a
186.0	2.486910138046401	7	early	em_task	n/a	n/a	n/a	n/a	25.2799179847866
188.4869101380464	0.75	7	early	em_task_post	n/a	n/a	n/a	n/a	n/a
196.0	1.5	8	late	stimulus	n/a	52.5	n/a	n/a	n/a
207.5	0.5	8	late	dm_task_pre	n/a	n/a	n/a	n/a	n/a
208.0	0.763596324017271	8	late	dm_task	0.763596324017271	n/a	0.0	1.0	n/a
208.76359632401727	0.75	8	late	dm_task_post	n/a	n/a	n/a	n/a	n/a
213.5	0.5	8	late	em_task_pre	n/a	n/a	n/a	n/a	n/a
214.0	2.227247494971401	8	late	em_task	n/a	n/a	n/a	n/a	59.4650644556517
216.2272474949714	0.75	8	late	em_task_post	n/a	n/a	n/a	n/a	n/a
224.0	1.5	9	late	stimulus	n/a	22.5	n/a	n/a	n/a
235.5	0.5	9	late	dm_task_pre	n/a	n/a	n/a	n/a	n/a
236.0	0.785707437898964	9	late	dm_task	0.785707437898964	n/a	4.0	1.0	n/a
236.78570743789896	0.75	9	late	dm_task_post	n/a	n/a	n/a	n/a	n/a
241.5	0.5	9	late	em_task_pre	n/a	n/a	n/a	n/a	n/a
242.0	2.4838838300202006	9	late	em_task	n/a	n/a	n/a	n/a	22.040963260457
244.4838838300202	0.75	9	late	em_task_post	n/a	n/a	n/a	n/a	n/a
252.0	1.5	10	late	stimulus	n/a	90.0	n/a	n/a	n/a
263.5	0.5	10	late	dm_task_pre	n/a	n/a	n/a	n/a	n/a
264.0	0.442578668007627	10	late	dm_task	0.442578668007627	n/a	0.0	1.0	n/a
264.4425786680076	0.75	10	late	dm_task_post	n/a	n/a	n/a	n/a	n/a
269.5	0.5	10	late	em_task_pre	n/a	n/a	n/a	n/a	n/a
270.0	2.373021527892	10	late	em_task	n/a	n/a	n/a	n/a	92.3520507261698
272.373021527892	0.75	10	late	em_task_post	n/a	n/a	n/a	n/a	n/a
280.0	1.5	11	early	stimulus	n/a	82.5	n/a	n/a	n/a
285.5	0.5	11	early	dm_task_pre	n/a	n/a	n/a	n/a	n/a
286.0	1.06726206489839	11	early	dm_task	1.06726206489839	n/a	4.0	-1.0	n/a
287.0672620648984	0.75	11	early	dm_task_post	n/a	n/a	n/a	n/a	n/a
297.5	0.5	11	early	em_task_pre	n/a	n/a	n/a	n/a	n/a
298.0	3.612723364029101	11	early	em_task	n/a	n/a	n/a	n/a	85.2418373216303
301.6127233640291	0.75	11	early	em_task_post	n/a	n/a	n/a	n/a	n/a
308.0	1.5	12	early	stimulus	n/a	7.5	n/a	n/a	n/a
313.5	0.5	12	early	dm_task_pre	n/a	n/a	n/a	n/a	n/a
314.0	0.441868958994746	12	early	dm_task	0.441868958994746	n/a	-4.0	1.0	n/a
314.44186895899475	0.75	12	early	dm_task_post	n/a	n/a	n/a	n/a	n/a
325.5	0.5	12	early	em_task_pre	n/a	n/a	n/a	n/a	n/a
326.0	2.0692732220049983	12	early	em_task	n/a	n/a	n/a	n/a	18.2456408716421
328.069273222005	0.75	12	early	em_task_post	n/a	n/a	n/a	n/a	n/a
