onset	duration	trial	trial_type	event_type	response_time	value_stimulus	value_reference	response_decision	response_estimation
0.0	1.5	1	early	stimulus	n/a	120.0	n/a	n/a	n/a
5.5	0.5	1	early	dm_task_pre	n/a	n/a	n/a	n/a	n/a
6.0	0.887815875001252	1	early	dm_task	0.887815875001252	n/a	21.0	-1.0	n/a
6.887815875001252	0.75	1	early	dm_task_post	n/a	n/a	n/a	n/a	n/a
17.5	0.5	1	early	em_task_pre	n/a	n/a	n/a	n/a	n/a
18.0	2.3936744940002015	1	early	em_task	n/a	n/a	n/a	n/a	119.292108152813
20.3936744940002	0.75	1	early	em_task_post	n/a	n/a	n/a	n/a	n/a
28.0	1.5	2	early	stimulus	n/a	30.0	n/a	n/a	n/a
33.5	0.5	2	early	dm_task_pre	n/a	n/a	n/a	n/a	n/a
34.0	0.979421759024262	2	early	dm_task	0.979421759024262	n/a	0.0	1.0	n/a
34.97942175902426	0.75	2	early	dm_task_post	n/a	n/a	n/a	n/a	n/a
45.5	0.5	2	early	em_task_pre	n/a	n/a	n/a	n/a	n/a
46.0	3.1850193680147996	2	early	em_task	n/a	n/a	n/a	n/a	40.350251953217
49.1850193680148	0.75	2	early	em_task_post	n/a	n/a	n/a	n/a	n/a
56.0	1.5	3	early	stimulus	n/a	127.5	n/a	n/a	n/a
61.5	0.5	3	early	dm_task_pre	n/a	n/a	n/a	n/a	n/a
62.0	0.639582744042855	3	early	dm_task	0.639582744042855	n/a	-21.0	1.0	n/a
62.639582744042855	0.75	3	early	dm_task_post	n/a	n/a	n/a	n/a	n/a
73.5	0.5	3	early	em_task_pre	n/a	n/a	n/a	n/a	n/a
74.0	2.8776328079984985	3	early	em_task	n/a	n/a	n/a	n/a	130.103368614507
76.8776328079985	0.75	3	early	em_task_post	n/a	n/a	n/a	n/a	n/a
84.0	1.5	4	late	stimulus	n/a	150.0	n/a	n/a	n/a
95.5	0.5	4	late	dm_task_pre	n/a	n/a	n/a	n/a	n/a
96.0	0.632630767009687	4	late	dm_task	0.632630767009687	n/a	21.0	-1.0	n/a
96.63263076700969	0.75	4	late	dm_task_post	n/a	n/a	n/a	n/a	n/a
101.5	0.5	4	late	em_task_pre	n/a	n/a	n/a	n/a	n/a
102.0	4.5	4	late	em_task	n/a	n/a	n/a	n/a	n/a
106.5	0.75	4	late	em_task_post	n/a	n/a	n/a	n/a	n/a
112.0	1.5	5	late	stimulus	n/a	37.5	n/a	n/a	n/a
123.5	0.5	5	late	dm_task_pre	n/a	n/a	n/a	n/a	n/a
124.0	0.591575854050461	5	late	dm_task	0.591575854050461	n/a	0.0	1.0	n/a
124.59157585405046	0.75	5	late	dm_task_post	n/a	n/a	n/a	n/a	n/a
129.5	0.5	5	late	em_task_pre	n/a	n/a	n/a	n/a	n/a
130.0	4.262702378036899	5	late	em_task	n/a	n/a	n/a	n/a	55.1799033407432
134.2627023780369	0.75	5	late	em_task_post	n/a	n/a	n/a	n/a	n/a
140.0	1.5	6	early	stimulus	n/a	142.5	n/a	n/a	n/a
145.5	0.5	6	early	dm_task_pre	n/a	n/a	n/a	n/a	n/a
146.0	0.815910072007682	6	early	dm_task	0.815910072007682	n/a	0.0	1.0	n/a
146.81591007200768	0.75	6	early	dm_task_post	n/a	n/a	n/a	n/a	n/a
157.5	0.5	6	early	em_task_pre	n/a	n/a	n/a	n/a	n/a
158.0	3.088487908011299	6	early	em_task	n/a	n/a	n/a	n/a	159.897999659958
161.0884879080113	0.75	6	early	em_task_post	n/a	n/a	n/a	n/a	n/a
168.0	1.5	7	late	stimulus	n/a	112.5	n/a	n/a	n/a
179.5	0.5	7	late	dm_task_pre	n/a	n/a	n/a	n/a	n/a
180.0	1.17699647502741	7	late	dm_task	1.17699647502741	n/a	4.0	-1.0	n/a
181.1769964750274	0.75	7	late	dm_task_post	n/a	n/a	n/a	n/a	n/a
185.5	0.5	7	late	em_task_pre	n/a	n/a	n/a	n/a	n/a
186.0	4.314423291012599	7	late	em_task	n/a	n/a	n/a	n/a	108.076593200791
190.3144232910126	0.75	7	late	em_task_post	n/a	n/a	n/a	n/a	n/a
196.0	1.5	8	late	stimulus	n/a	67.5	n/a	n/a	n/a
207.5	0.5	8	late	dm_task_pre	n/a	n/a	n/a	n/a	n/a
208.0	0.6187145980075	8	late	dm_task	0.6187145980075	n/a	-4.0	1.0	n/a
208.6187145980075	0.75	8	late	dm_task_post	n/a	n/a	n/a	n/a	n/a
213.5	0.5	8	late	em_task_pre	n/a	n/a	n/a	n/a	n/a
214.0	3.4398500210373015	8	late	em_task	n/a	n/a	n/a	n/a	74.171900323313
217.4398500210373	0.75	8	late	em_task_post	n/a	n/a	n/a	n/a	n/a
224.0	1.5	9	late	stimulus	n/a	15.0	n/a	n/a	n/a
235.5	0.5	9	late	dm_task_pre	n/a	n/a	n/a	n/a	n/a
236.0	0.945720883028116	9	late	dm_task	0.945720883028116	n/a	21.0	-1.0	n/a
236.94572088302812	0.75	9	late	dm_task_post	n/a	n/a	n/a	n/a	n/a
241.5	0.5	9	late	em_task_pre	n/a	n/a	n/a	n/a	n/a
242.0	3.465076059044801	9	late	em_task	n/a	n/a	n/a	n/a	27.6577597746756
245.4650760590448	0.75	9	late	em_task_post	n/a	n/a	n/a	n/a	n/a
252.0	1.5	10	late	stimulus	n/a	45.0	n/a	n/a	n/a
263.5	0.5	10	late	dm_task_pre	n/a	n/a	n/a	n/a	n/a
264.0	0.620429888018407	10	late	dm_task	0.620429888018407	n/a	0.0	1.0	n/a
264.6204298880184	0.75	10	late	dm_task_post	n/a	n/a	n/a	n/a	n/a
269.5	0.5	10	late	em_task_pre	n/a	n/a	n/a	n/a	n/a
270.0	3.492128800018701	10	late	em_task	n/a	n/a	n/a	n/a	47.9671170052863
273.4921288000187	0.75	10	late	em_task_post	n/a	n/a	n/a	n/a	n/a
280.0	1.5	11	early	stimulus	n/a	52.5	n/a	n/a	n/a
285.5	0.5	11	early	dm_task_pre	n/a	n/a	n/a	n/a	n/a
286.0	1.5	11	early	dm_task	n/a	n/a	4.0	n/a	n/a
287.5	0.75	11	early	dm_task_post	n/a	n/a	n/a	n/a	n/a
297.5	0.5	11	early	em_task_pre	n/a	n/a	n/a	n/a	n/a
298.0	3.4338514330448007	11	early	em_task	n/a	n/a	n/a	n/a	50.4634213665014
301.4338514330448	0.75	11	early	em_task_post	n/a	n/a	n/a	n/a	n/a
308.0	1.5	12	early	stimulus	n/a	7.5	n/a	n/a	n/a
313.5	0.5	12	early	dm_task_pre	n/a	n/a	n/a	n/a	n/a
314.0	0.753522133047227	12	early	dm_task	0.753522133047227	n/a	0.0	1.0	n/a
314.7535221330472	0.75	12	early	dm_task_post	n/a	n/a	n/a	n/a	n/a
325.5	0.5	12	early	em_task_pre	n/a	n/a	n/a	n/a	n/a
326.0	3.660175367025701	12	early	em_task	n/a	n/a	n/a	n/a	21.1168899782485
329.6601753670257	0.75	12	early	em_task_post	n/a	n/a	n/a	n/a	n/a
