onset	duration	trial	trial_type	event_type	response_time	value_stimulus	value_reference	response_decision	response_estimation
0.0	1.5	1	late	stimulus	n/a	22.5	n/a	n/a	n/a
11.5	0.5	1	late	dm_task_pre	n/a	n/a	n/a	n/a	n/a
12.0	0.818705928977579	1	late	dm_task	0.818705928977579	n/a	0.0	-1.0	n/a
12.818705928977579	0.75	1	late	dm_task_post	n/a	n/a	n/a	n/a	n/a
17.5	0.5	1	late	em_task_pre	n/a	n/a	n/a	n/a	n/a
18.0	2.3380225190194004	1	late	em_task	n/a	n/a	n/a	n/a	28.9986269609216
20.3380225190194	0.75	1	late	em_task_post	n/a	n/a	n/a	n/a	n/a
28.0	1.5	2	late	stimulus	n/a	15.0	n/a	n/a	n/a
39.5	0.5	2	late	dm_task_pre	n/a	n/a	n/a	n/a	n/a
40.0	0.777732316986658	2	late	dm_task	0.777732316986658	n/a	21.0	-1.0	n/a
40.77773231698666	0.75	2	late	dm_task_post	n/a	n/a	n/a	n/a	n/a
45.5	0.5	2	late	em_task_pre	n/a	n/a	n/a	n/a	n/a
46.0	2.664762887987301	2	late	em_task	n/a	n/a	n/a	n/a	22.7259456204332
48.6647628879873	0.75	2	late	em_task_post	n/a	n/a	n/a	n/a	n/a
56.0	1.5	3	late	stimulus	n/a	82.5	n/a	n/a	n/a
67.5	0.5	3	late	dm_task_pre	n/a	n/a	n/a	n/a	n/a
68.0	1.30446131597273	3	late	dm_task	1.30446131597273	n/a	-4.0	-1.0	n/a
69.30446131597273	0.75	3	late	dm_task_post	n/a	n/a	n/a	n/a	n/a
73.5	0.5	3	late	em_task_pre	n/a	n/a	n/a	n/a	n/a
74.0	3.4394466630182983	3	late	em_task	n/a	n/a	n/a	n/a	78.3375567102826
77.4394466630183	0.75	3	late	em_task_post	n/a	n/a	n/a	n/a	n/a
84.0	1.5	4	early	stimulus	n/a	0.0	n/a	n/a	n/a
89.5	0.5	4	early	dm_task_pre	n/a	n/a	n/a	n/a	n/a
90.0	1.5	4	early	dm_task	1.89396702800877	n/a	-4.0	1.0	n/a
91.5	0.75	4	early	dm_task_post	n/a	n/a	n/a	n/a	n/a
101.5	0.5	4	early	em_task_pre	n/a	n/a	n/a	n/a	n/a
102.0	3.1165709230117002	4	early	em_task	n/a	n/a	n/a	n/a	176.365366056606
105.1165709230117	0.75	4	early	em_task_post	n/a	n/a	n/a	n/a	n/a
112.0	1.5	5	early	stimulus	n/a	52.5	n/a	n/a	n/a
117.5	0.5	5	early	dm_task_pre	n/a	n/a	n/a	n/a	n/a
118.0	0.637585385004058	5	early	dm_task	0.637585385004058	n/a	-21.0	1.0	n/a
118.63758538500406	0.75	5	early	dm_task_post	n/a	n/a	n/a	n/a	n/a
129.5	0.5	5	early	em_task_pre	n/a	n/a	n/a	n/a	n/a
130.0	2.8087696559959987	5	early	em_task	n/a	n/a	n/a	n/a	39.0071681758458
132.808769655996	0.75	5	early	em_task_post	n/a	n/a	n/a	n/a	n/a
140.0	1.5	6	early	stimulus	n/a	97.5	n/a	n/a	n/a
145.5	0.5	6	early	dm_task_pre	n/a	n/a	n/a	n/a	n/a
146.0	0.595699193014298	6	early	dm_task	0.595699193014298	n/a	21.0	-1.0	n/a
146.5956991930143	0.75	6	early	dm_task_post	n/a	n/a	n/a	n/a	n/a
157.5	0.5	6	early	em_task_pre	n/a	n/a	n/a	n/a	n/a
158.0	3.8340839149895984	6	early	em_task	n/a	n/a	n/a	n/a	103.096893462734
161.8340839149896	0.75	6	early	em_task_post	n/a	n/a	n/a	n/a	n/a
168.0	1.5	7	early	stimulus	n/a	45.0	n/a	n/a	n/a
173.5	0.5	7	early	dm_task_pre	n/a	n/a	n/a	n/a	n/a
174.0	1.08684954600176	7	early	dm_task	1.08684954600176	n/a	-21.0	1.0	n/a
175.08684954600176	0.75	7	early	dm_task_post	n/a	n/a	n/a	n/a	n/a
185.5	0.5	7	early	em_task_pre	n/a	n/a	n/a	n/a	n/a
186.0	4.159669586981199	7	early	em_task	n/a	n/a	n/a	n/a	42.3308804890209
190.1596695869812	0.75	7	early	em_task_post	n/a	n/a	n/a	n/a	n/a
196.0	1.5	8	late	stimulus	n/a	150.0	n/a	n/a	n/a
207.5	0.5	8	late	dm_task_pre	n/a	n/a	n/a	n/a	n/a
208.0	0.816839302016888	8	late	dm_task	0.816839302016888	n/a	-4.0	1.0	n/a
208.8168393020169	0.75	8	late	dm_task_post	n/a	n/a	n/a	n/a	n/a
213.5	0.5	8	late	em_task_pre	n/a	n/a	n/a	n/a	n/a
214.0	2.6186939260223987	8	late	em_task	n/a	n/a	n/a	n/a	150.179028899149
216.6186939260224	0.75	8	late	em_task_post	n/a	n/a	n/a	n/a	n/a
224.0	1.5	9	early	stimulus	n/a	105.0	n/a	n/a	n/a
229.5	0.5	9	early	dm_task_pre	n/a	n/a	n/a	n/a	n/a
230.0	0.75675143301487	9	early	dm_task	0.75675143301487	n/a	4.0	1.0	n/a
230.75675143301487	0.75	9	early	dm_task_post	n/a	n/a	n/a	n/a	n/a
241.5	0.5	9	early	em_task_pre	n/a	n/a	n/a	n/a	n/a
242.0	2.6610396900214006	9	early	em_task	n/a	n/a	n/a	n/a	125.279125191618
244.6610396900214	0.75	9	early	em_task_post	n/a	n/a	n/a	n/a	n/a
252.0	1.5	10	late	stimulus	n/a	127.5	n/a	n/a	n/a
263.5	0.5	10	late	dm_task_pre	n/a	n/a	n/a	n/a	n/a
264.0	0.833866323984694	10	late	dm_task	0.833866323984694	n/a	-21.0	1.0	n/a
264.8338663239847	0.75	10	late	dm_task_post	n/a	n/a	n/a	n/a	n/a
269.5	0.5	10	late	em_task_pre	n/a	n/a	n/a	n/a	n/a
270.0	3.0866341000074016	10	late	em_task	n/a	n/a	n/a	n/a	125.299760936357
273.0866341000074	0.75	10	late	em_task_post	n/a	n/a	n/a	n/a	n/a
280.0	1.5	11	late	stimulus	n/a	37.5	n/a	n/a	n/a
291.5	0.5	11	late	dm_task_pre	n/a	n/a	n/a	n/a	n/a
292.0	0.727262676984537	11	late	dm_task	0.727262676984537	n/a	4.0	-1.0	n/a
292.72726267698454	0.75	11	late	dm_task_post	n/a	n/a	n/a	n/a	n/a
297.5	0.5	11	late	em_task_pre	n/a	n/a	n/a	n/a	n/a
298.0	4.5	11	late	em_task	n/a	n/a	n/a	n/a	n/a
302.5	0.75	11	late	em_task_post	n/a	n/a	n/a	n/a	n/a
308.0	1.5	12	early	stimulus	n/a	142.5	n/a	n/a	n/a
313.5	0.5	12	early	dm_task_pre	n/a	n/a	n/a	n/a	n/a
314.0	0.666068044025451	12	early	dm_task	0.666068044025451	n/a	21.0	-1.0	n/a
314.66606804402545	0.75	12	early	dm_task_post	n/a	n/a	n/a	n/a	n/a
325.5	0.5	12	early	em_task_pre	n/a	n/a	n/a	n/a	n/a
326.0	2.2552258570213013	12	early	em_task	n/a	n/a	n/a	n/a	141.663391997565
328.2552258570213	0.75	12	early	em_task_post	n/a	n/a	n/a	n/a	n/a
