onset	duration	trial	trial_type	event_type	response_time	value_stimulus	value_reference	response_decision	response_estimation
0.0	1.5	1	early	stimulus	n/a	135.0	n/a	n/a	n/a
5.5	0.5	1	early	dm_task_pre	n/a	n/a	n/a	n/a	n/a
6.0	0.584699864994036	1	early	dm_task	0.584699864994036	n/a	-4.0	1.0	n/a
6.584699864994036	0.75	1	early	dm_task_post	n/a	n/a	n/a	n/a	n/a
17.5	0.5	1	early	em_task_pre	n/a	n/a	n/a	n/a	n/a
18.0	3.8897690640005997	1	early	em_task	n/a	n/a	n/a	n/a	142.528091969036
21.8897690640006	0.75	1	early	em_task_post	n/a	n/a	n/a	n/a	n/a
28.0	1.5	2	early	stimulus	n/a	165.0	n/a	n/a	n/a
33.5	0.5	2	early	dm_task_pre	n/a	n/a	n/a	n/a	n/a
34.0	0.894158050999977	2	early	dm_task	0.894158050999977	n/a	4.0	-1.0	n/a
34.89415805099998	0.75	2	early	dm_task_post	n/a	n/a	n/a	n/a	n/a
45.5	0.5	2	early	em_task_pre	n/a	n/a	n/a	n/a	n/a
46.0	1.7983888080052992	2	early	em_task	n/a	n/a	n/a	n/a	160.894465981129
47.7983888080053	0.75	2	early	em_task_post	n/a	n/a	n/a	n/a	n/a
56.0	1.5	3	late	stimulus	n/a	52.5	n/a	n/a	n/a
67.5	0.5	3	late	dm_task_pre	n/a	n/a	n/a	n/a	n/a
68.0	0.539358512003673	3	late	dm_task	0.539358512003673	n/a	-21.0	1.0	n/a
68.53935851200367	0.75	3	late	dm_task_post	n/a	n/a	n/a	n/a	n/a
73.5	0.5	3	late	em_task_pre	n/a	n/a	n/a	n/a	n/a
74.0	3.7419101299893	3	late	em_task	n/a	n/a	n/a	n/a	62.7343724808364
77.7419101299893	0.75	3	late	em_task_post	n/a	n/a	n/a	n/a	n/a
84.0	1.5	4	late	stimulus	n/a	7.5	n/a	n/a	n/a
95.5	0.5	4	late	dm_task_pre	n/a	n/a	n/a	n/a	n/a
96.0	0.764846856996883	4	late	dm_task	0.764846856996883	n/a	4.0	-1.0	n/a
96.76484685699688	0.75	4	late	dm_task_post	n/a	n/a	n/a	n/a	n/a
101.5	0.5	4	late	em_task_pre	n/a	n/a	n/a	n/a	n/a
102.0	3.3023361740052017	4	late	em_task	n/a	n/a	n/a	n/a	9.70410969279246
105.3023361740052	0.75	4	late	em_task_post	n/a	n/a	n/a	n/a	n/a
112.0	1.5	5	early	stimulus	n/a	0.0	n/a	n/a	n/a
117.5	0.5	5	early	dm_task_pre	n/a	n/a	n/a	n/a	n/a
118.0	0.705716536002001	5	early	dm_task	0.705716536002001	n/a	-21.0	1.0	n/a
118.705716536002	0.75	5	early	dm_task_post	n/a	n/a	n/a	n/a	n/a
129.5	0.5	5	early	em_task_pre	n/a	n/a	n/a	n/a	n/a
130.0	3.710118460992799	5	early	em_task	n/a	n/a	n/a	n/a	4.99223559908717
133.7101184609928	0.75	5	early	em_task_post	n/a	n/a	n/a	n/a	n/a
140.0	1.5	6	early	stimulus	n/a	82.5	n/a	n/a	n/a
145.5	0.5	6	early	dm_task_pre	n/a	n/a	n/a	n/a	n/a
146.0	0.64776355799404	6	early	dm_task	0.64776355799404	n/a	-21.0	1.0	n/a
146.64776355799404	0.75	6	early	dm_task_post	n/a	n/a	n/a	n/a	n/a
157.5	0.5	6	early	em_task_pre	n/a	n/a	n/a	n/a	n/a
158.0	2.918849404988599	6	early	em_task	n/a	n/a	n/a	n/a	75.7887256686904
160.9188494049886	0.75	6	early	em_task_post	n/a	n/a	n/a	n/a	n/a
168.0	1.5	7	early	stimulus	n/a	75.0	n/a	n/a	n/a
173.5	0.5	7	early	dm_task_pre	n/a	n/a	n/a	n/a	n/a
174.0	0.606576916004997	7	early	dm_task	0.606576916004997	n/a	21.0	-1.0	n/a
174.606576916005	0.75	7	early	dm_task_post	n/a	n/a	n/a	n/a	n/a
185.5	0.5	7	early	em_task_pre	n/a	n/a	n/a	n/a	n/a
186.0	2.8446162260079007	7	early	em_task	n/a	n/a	n/a	n/a	77.1586025459591
188.8446162260079	0.75	7	early	em_task_post	n/a	n/a	n/a	n/a	n/a
196.0	1.5	8	late	stimulus	n/a	97.5	n/a	n/a	n/a
207.5	0.5	8	late	dm_task_pre	n/a	n/a	n/a	n/a	n/a
208.0	0.684547932003625	8	late	dm_task	0.684547932003625	n/a	0.0	1.0	n/a
208.68454793200362	0.75	8	late	dm_task_post	n/a	n/a	n/a	n/a	n/a
213.5	0.5	8	late	em_task_pre	n/a	n/a	n/a	n/a	n/a
214.0	2.985943766980199	8	late	em_task	n/a	n/a	n/a	n/a	105.436167984787
216.9859437669802	0.75	8	late	em_task_post	n/a	n/a	n/a	n/a	n/a
224.0	1.5	9	late	stimulus	n/a	60.0	n/a	n/a	n/a
235.5	0.5	9	late	dm_task_pre	n/a	n/a	n/a	n/a	n/a
236.0	0.859797067008913	9	late	dm_task	0.859797067008913	n/a	0.0	-1.0	n/a
236.8597970670089	0.75	9	late	dm_task_post	n/a	n/a	n/a	n/a	n/a
241.5	0.5	9	late	em_task_pre	n/a	n/a	n/a	n/a	n/a
242.0	2.1955820629954985	9	late	em_task	n/a	n/a	n/a	n/a	38.3713144556517
244.1955820629955	0.75	9	late	em_task_post	n/a	n/a	n/a	n/a	n/a
252.0	1.5	10	late	stimulus	n/a	172.5	n/a	n/a	n/a
263.5	0.5	10	late	dm_task_pre	n/a	n/a	n/a	n/a	n/a
264.0	0.768901996983914	10	late	dm_task	0.768901996983914	n/a	0.0	1.0	n/a
264.7689019969839	0.75	10	late	dm_task_post	n/a	n/a	n/a	n/a	n/a
269.5	0.5	10	late	em_task_pre	n/a	n/a	n/a	n/a	n/a
270.0	4.5	10	late	em_task	n/a	n/a	n/a	n/a	n/a
274.5	0.75	10	late	em_task_post	n/a	n/a	n/a	n/a	n/a
280.0	1.5	11	early	stimulus	n/a	127.5	n/a	n/a	n/a
285.5	0.5	11	early	dm_task_pre	n/a	n/a	n/a	n/a	n/a
286.0	0.943502787005855	11	early	dm_task	0.943502787005855	n/a	-4.0	-1.0	n/a
286.94350278700585	0.75	11	early	dm_task_post	n/a	n/a	n/a	n/a	n/a
297.5	0.5	11	early	em_task_pre	n/a	n/a	n/a	n/a	n/a
298.0	2.880694154999201	11	early	em_task	n/a	n/a	n/a	n/a	105.71142572617
300.8806941549992	0.75	11	early	em_task_post	n/a	n/a	n/a	n/a	n/a
308.0	1.5	12	early	stimulus	n/a	90.0	n/a	n/a	n/a
313.5	0.5	12	early	dm_task_pre	n/a	n/a	n/a	n/a	n/a
314.0	0.635406518005766	12	early	dm_task	0.635406518005766	n/a	21.0	-1.0	n/a
314.63540651800577	0.75	12	early	dm_task_post	n/a	n/a	n/a	n/a	n/a
325.5	0.5	12	early	em_task_pre	n/a	n/a	n/a	n/a	n/a
326.0	3.558434617007201	12	early	em_task	n/a	n/a	n/a	n/a	96.4918373216304
329.5584346170072	0.75	12	early	em_task_post	n/a	n/a	n/a	n/a	n/a
