onset	duration	trial	trial_type	event_type	response_time	value_stimulus	value_reference	response_decision	response_estimation
0.0	1.5	1	late	stimulus	n/a	127.5	n/a	n/a	n/a
11.5	0.5	1	late	dm_task_pre	n/a	n/a	n/a	n/a	n/a
12.0	0.565546265999728	1	late	dm_task	0.565546265999728	n/a	-4.0	1.0	n/a
12.565546265999728	0.75	1	late	dm_task_post	n/a	n/a	n/a	n/a	n/a
17.5	0.5	1	late	em_task_pre	n/a	n/a	n/a	n/a	n/a
18.0	3.4788728149978994	1	late	em_task	n/a	n/a	n/a	n/a	141.932244364501
21.4788728149979	0.75	1	late	em_task_post	n/a	n/a	n/a	n/a	n/a
28.0	1.5	2	late	stimulus	n/a	157.5	n/a	n/a	n/a
39.5	0.5	2	late	dm_task_pre	n/a	n/a	n/a	n/a	n/a
40.0	0.753069684997172	2	late	dm_task	0.753069684997172	n/a	0.0	-1.0	n/a
40.75306968499717	0.75	2	late	dm_task_post	n/a	n/a	n/a	n/a	n/a
45.5	0.5	2	late	em_task_pre	n/a	n/a	n/a	n/a	n/a
46.0	2.166987344997299	2	late	em_task	n/a	n/a	n/a	n/a	147.023665174703
48.166987344997295	0.75	2	late	em_task_post	n/a	n/a	n/a	n/a	n/a
56.0	1.5	3	late	stimulus	n/a	0.0	n/a	n/a	n/a
67.5	0.5	3	late	dm_task_pre	n/a	n/a	n/a	n/a	n/a
68.0	0.76596781599801	3	late	dm_task	0.76596781599801	n/a	21.0	-1.0	n/a
68.76596781599801	0.75	3	late	dm_task_post	n/a	n/a	n/a	n/a	n/a
73.5	0.5	3	late	em_task_pre	n/a	n/a	n/a	n/a	n/a
74.0	2.7709743439991	3	late	em_task	n/a	n/a	n/a	n/a	178.38993213095
76.7709743439991	0.75	3	late	em_task_post	n/a	n/a	n/a	n/a	n/a
84.0	1.5	4	late	stimulus	n/a	112.5	n/a	n/a	n/a
95.5	0.5	4	late	dm_task_pre	n/a	n/a	n/a	n/a	n/a
96.0	0.944741414998134	4	late	dm_task	0.944741414998134	n/a	4.0	-1.0	n/a
96.94474141499813	0.75	4	late	dm_task_post	n/a	n/a	n/a	n/a	n/a
101.5	0.5	4	late	em_task_pre	n/a	n/a	n/a	n/a	n/a
102.0	2.3753750569994985	4	late	em_task	n/a	n/a	n/a	n/a	80.6728246163883
104.3753750569995	0.75	4	late	em_task_post	n/a	n/a	n/a	n/a	n/a
112.0	1.5	5	early	stimulus	n/a	172.5	n/a	n/a	n/a
117.5	0.5	5	early	dm_task_pre	n/a	n/a	n/a	n/a	n/a
118.0	0.834222402998421	5	early	dm_task	0.834222402998421	n/a	-21.0	1.0	n/a
118.83422240299842	0.75	5	early	dm_task_post	n/a	n/a	n/a	n/a	n/a
129.5	0.5	5	early	em_task_pre	n/a	n/a	n/a	n/a	n/a
130.0	3.5291996379964985	5	early	em_task	n/a	n/a	n/a	n/a	173.170412400674
133.5291996379965	0.75	5	early	em_task_post	n/a	n/a	n/a	n/a	n/a
140.0	1.5	6	early	stimulus	n/a	135.0	n/a	n/a	n/a
145.5	0.5	6	early	dm_task_pre	n/a	n/a	n/a	n/a	n/a
146.0	0.806036177997157	6	early	dm_task	0.806036177997157	n/a	-21.0	1.0	n/a
146.80603617799716	0.75	6	early	dm_task_post	n/a	n/a	n/a	n/a	n/a
157.5	0.5	6	early	em_task_pre	n/a	n/a	n/a	n/a	n/a
158.0	4.5	6	early	em_task	n/a	n/a	n/a	n/a	n/a
162.5	0.75	6	early	em_task_post	n/a	n/a	n/a	n/a	n/a
168.0	1.5	7	late	stimulus	n/a	22.5	n/a	n/a	n/a
179.5	0.5	7	late	dm_task_pre	n/a	n/a	n/a	n/a	n/a
180.0	0.913614913999481	7	late	dm_task	0.913614913999481	n/a	21.0	1.0	n/a
180.91361491399948	0.75	7	late	dm_task_post	n/a	n/a	n/a	n/a	n/a
185.5	0.5	7	late	em_task_pre	n/a	n/a	n/a	n/a	n/a
186.0	4.321559692998601	7	late	em_task	n/a	n/a	n/a	n/a	39.2366743029291
190.3215596929986	0.75	7	late	em_task_post	n/a	n/a	n/a	n/a	n/a
196.0	1.5	8	late	stimulus	n/a	90.0	n/a	n/a	n/a
207.5	0.5	8	late	dm_task_pre	n/a	n/a	n/a	n/a	n/a
208.0	0.944938090997312	8	late	dm_task	0.944938090997312	n/a	-21.0	1.0	n/a
208.9449380909973	0.75	8	late	dm_task_post	n/a	n/a	n/a	n/a	n/a
213.5	0.5	8	late	em_task_pre	n/a	n/a	n/a	n/a	n/a
214.0	3.0606686609972016	8	late	em_task	n/a	n/a	n/a	n/a	81.2913286480979
217.0606686609972	0.75	8	late	em_task_post	n/a	n/a	n/a	n/a	n/a
224.0	1.5	9	early	stimulus	n/a	150.0	n/a	n/a	n/a
229.5	0.5	9	early	dm_task_pre	n/a	n/a	n/a	n/a	n/a
230.0	0.768243046997668	9	early	dm_task	0.768243046997668	n/a	-4.0	1.0	n/a
230.76824304699767	0.75	9	early	dm_task_post	n/a	n/a	n/a	n/a	n/a
241.5	0.5	9	early	em_task_pre	n/a	n/a	n/a	n/a	n/a
242.0	3.8542926699992996	9	early	em_task	n/a	n/a	n/a	n/a	177.165951523039
245.8542926699993	0.75	9	early	em_task_post	n/a	n/a	n/a	n/a	n/a
252.0	1.5	10	late	stimulus	n/a	37.5	n/a	n/a	n/a
263.5	0.5	10	late	dm_task_pre	n/a	n/a	n/a	n/a	n/a
264.0	1.17464039699917	10	late	dm_task	1.17464039699917	n/a	4.0	-1.0	n/a
265.17464039699917	0.75	10	late	dm_task_post	n/a	n/a	n/a	n/a	n/a
269.5	0.5	10	late	em_task_pre	n/a	n/a	n/a	n/a	n/a
270.0	1.7728470099972995	10	late	em_task	n/a	n/a	n/a	n/a	51.2788095134141
271.7728470099973	0.75	10	late	em_task_post	n/a	n/a	n/a	n/a	n/a
280.0	1.5	11	late	stimulus	n/a	7.5	n/a	n/a	n/a
291.5	0.5	11	late	dm_task_pre	n/a	n/a	n/a	n/a	n/a
292.0	1.04476313999839	11	late	dm_task	1.04476313999839	n/a	-21.0	1.0	n/a
293.0447631399984	0.75	11	late	dm_task_post	n/a	n/a	n/a	n/a	n/a
297.5	0.5	11	late	em_task_pre	n/a	n/a	n/a	n/a	n/a
298.0	2.877541336998501	11	late	em_task	n/a	n/a	n/a	n/a	176.190932445823
300.8775413369985	0.75	11	late	em_task_post	n/a	n/a	n/a	n/a	n/a
308.0	1.5	12	early	stimulus	n/a	52.5	n/a	n/a	n/a
313.5	0.5	12	early	dm_task_pre	n/a	n/a	n/a	n/a	n/a
314.0	0.998337291999633	12	early	dm_task	0.998337291999633	n/a	0.0	1.0	n/a
314.99833729199963	0.75	12	early	dm_task_post	n/a	n/a	n/a	n/a	n/a
325.5	0.5	12	early	em_task_pre	n/a	n/a	n/a	n/a	n/a
326.0	4.169240178998699	12	early	em_task	n/a	n/a	n/a	n/a	63.552294331044
330.1692401789987	0.75	12	early	em_task_post	n/a	n/a	n/a	n/a	n/a
