onset	duration	trial	trial_type	event_type	response_time	value_stimulus	value_reference	response_decision	response_estimation
0.0	1.5	1	late	stimulus	n/a	22.5	n/a	n/a	n/a
11.5	0.5	1	late	dm_task_pre	n/a	n/a	n/a	n/a	n/a
12.0	0.561750476015732	1	late	dm_task	0.561750476015732	n/a	-21.0	1.0	n/a
12.561750476015732	0.75	1	late	dm_task_post	n/a	n/a	n/a	n/a	n/a
17.5	0.5	1	late	em_task_pre	n/a	n/a	n/a	n/a	n/a
18.0	3.5083076080190985	1	late	em_task	n/a	n/a	n/a	n/a	25.8218757258485
21.5083076080191	0.75	1	late	em_task_post	n/a	n/a	n/a	n/a	n/a
28.0	1.5	2	early	stimulus	n/a	150.0	n/a	n/a	n/a
33.5	0.5	2	early	dm_task_pre	n/a	n/a	n/a	n/a	n/a
34.0	1.06969686603406	2	early	dm_task	1.06969686603406	n/a	0.0	-1.0	n/a
35.06969686603406	0.75	2	early	dm_task_post	n/a	n/a	n/a	n/a	n/a
45.5	0.5	2	early	em_task_pre	n/a	n/a	n/a	n/a	n/a
46.0	2.0321610200334987	2	early	em_task	n/a	n/a	n/a	n/a	149.444118518007
48.0321610200335	0.75	2	early	em_task_post	n/a	n/a	n/a	n/a	n/a
56.0	1.5	3	late	stimulus	n/a	0.0	n/a	n/a	n/a
67.5	0.5	3	late	dm_task_pre	n/a	n/a	n/a	n/a	n/a
68.0	0.95667374500772	3	late	dm_task	0.95667374500772	n/a	4.0	-1.0	n/a
68.95667374500772	0.75	3	late	dm_task_post	n/a	n/a	n/a	n/a	n/a
73.5	0.5	3	late	em_task_pre	n/a	n/a	n/a	n/a	n/a
74.0	3.7876928110491015	3	late	em_task	n/a	n/a	n/a	n/a	172.884648216548
77.7876928110491	0.75	3	late	em_task_post	n/a	n/a	n/a	n/a	n/a
84.0	1.5	4	late	stimulus	n/a	97.5	n/a	n/a	n/a
95.5	0.5	4	late	dm_task_pre	n/a	n/a	n/a	n/a	n/a
96.0	0.780552794050891	4	late	dm_task	0.780552794050891	n/a	4.0	1.0	n/a
96.78055279405089	0.75	4	late	dm_task_post	n/a	n/a	n/a	n/a	n/a
101.5	0.5	4	late	em_task_pre	n/a	n/a	n/a	n/a	n/a
102.0	3.0275267350370996	4	late	em_task	n/a	n/a	n/a	n/a	98.8812601592054
105.0275267350371	0.75	4	late	em_task_post	n/a	n/a	n/a	n/a	n/a
112.0	1.5	5	late	stimulus	n/a	75.0	n/a	n/a	n/a
123.5	0.5	5	late	dm_task_pre	n/a	n/a	n/a	n/a	n/a
124.0	0.704088368045632	5	late	dm_task	0.704088368045632	n/a	21.0	-1.0	n/a
124.70408836804563	0.75	5	late	dm_task_post	n/a	n/a	n/a	n/a	n/a
129.5	0.5	5	late	em_task_pre	n/a	n/a	n/a	n/a	n/a
130.0	2.1341366760315985	5	late	em_task	n/a	n/a	n/a	n/a	73.2340427013967
132.1341366760316	0.75	5	late	em_task_post	n/a	n/a	n/a	n/a	n/a
140.0	1.5	6	early	stimulus	n/a	157.5	n/a	n/a	n/a
145.5	0.5	6	early	dm_task_pre	n/a	n/a	n/a	n/a	n/a
146.0	0.812293790047988	6	early	dm_task	0.812293790047988	n/a	21.0	-1.0	n/a
146.812293790048	0.75	6	early	dm_task_post	n/a	n/a	n/a	n/a	n/a
157.5	0.5	6	early	em_task_pre	n/a	n/a	n/a	n/a	n/a
158.0	2.6242250200012016	6	early	em_task	n/a	n/a	n/a	n/a	165.131853129853
160.6242250200012	0.75	6	early	em_task_post	n/a	n/a	n/a	n/a	n/a
168.0	1.5	7	late	stimulus	n/a	82.5	n/a	n/a	n/a
179.5	0.5	7	late	dm_task_pre	n/a	n/a	n/a	n/a	n/a
180.0	1.06560854602139	7	late	dm_task	1.06560854602139	n/a	-21.0	1.0	n/a
181.0656085460214	0.75	7	late	dm_task_post	n/a	n/a	n/a	n/a	n/a
185.5	0.5	7	late	em_task_pre	n/a	n/a	n/a	n/a	n/a
186.0	3.514660634042201	7	late	em_task	n/a	n/a	n/a	n/a	71.711888808817
189.5146606340422	0.75	7	late	em_task_post	n/a	n/a	n/a	n/a	n/a
196.0	1.5	8	early	stimulus	n/a	45.0	n/a	n/a	n/a
201.5	0.5	8	early	dm_task_pre	n/a	n/a	n/a	n/a	n/a
202.0	1.05914454301819	8	early	dm_task	1.05914454301819	n/a	21.0	-1.0	n/a
203.0591445430182	0.75	8	early	dm_task_post	n/a	n/a	n/a	n/a	n/a
213.5	0.5	8	early	em_task_pre	n/a	n/a	n/a	n/a	n/a
214.0	3.7536674920119992	8	early	em_task	n/a	n/a	n/a	n/a	56.9330371847656
217.753667492012	0.75	8	early	em_task_post	n/a	n/a	n/a	n/a	n/a
224.0	1.5	9	late	stimulus	n/a	60.0	n/a	n/a	n/a
235.5	0.5	9	late	dm_task_pre	n/a	n/a	n/a	n/a	n/a
236.0	0.980669725046027	9	late	dm_task	0.980669725046027	n/a	0.0	1.0	n/a
236.98066972504603	0.75	9	late	dm_task_post	n/a	n/a	n/a	n/a	n/a
241.5	0.5	9	late	em_task_pre	n/a	n/a	n/a	n/a	n/a
242.0	3.5603055280516998	9	late	em_task	n/a	n/a	n/a	n/a	65.4169198661512
245.56030552805169	0.75	9	late	em_task_post	n/a	n/a	n/a	n/a	n/a
252.0	1.5	10	late	stimulus	n/a	142.5	n/a	n/a	n/a
263.5	0.5	10	late	dm_task_pre	n/a	n/a	n/a	n/a	n/a
264.0	0.920022472040728	10	late	dm_task	0.920022472040728	n/a	-4.0	-1.0	n/a
264.9200224720407	0.75	10	late	dm_task_post	n/a	n/a	n/a	n/a	n/a
269.5	0.5	10	late	em_task_pre	n/a	n/a	n/a	n/a	n/a
270.0	2.5672813410056	10	late	em_task	n/a	n/a	n/a	n/a	117.303022726524
272.5672813410056	0.75	10	late	em_task_post	n/a	n/a	n/a	n/a	n/a
280.0	1.5	11	early	stimulus	n/a	30.0	n/a	n/a	n/a
285.5	0.5	11	early	dm_task_pre	n/a	n/a	n/a	n/a	n/a
286.0	0.712142717035022	11	early	dm_task	0.712142717035022	n/a	-21.0	1.0	n/a
286.712142717035	0.75	11	early	dm_task_post	n/a	n/a	n/a	n/a	n/a
297.5	0.5	11	early	em_task_pre	n/a	n/a	n/a	n/a	n/a
298.0	3.2897046600118998	11	early	em_task	n/a	n/a	n/a	n/a	25.3957739106858
301.2897046600119	0.75	11	early	em_task_post	n/a	n/a	n/a	n/a	n/a
308.0	1.5	12	early	stimulus	n/a	135.0	n/a	n/a	n/a
313.5	0.5	12	early	dm_task_pre	n/a	n/a	n/a	n/a	n/a
314.0	0.935332842054777	12	early	dm_task	0.935332842054777	n/a	4.0	-1.0	n/a
314.9353328420548	0.75	12	early	dm_task_post	n/a	n/a	n/a	n/a	n/a
325.5	0.5	12	early	em_task_pre	n/a	n/a	n/a	n/a	n/a
326.0	4.029990091046798	12	early	em_task	n/a	n/a	n/a	n/a	133.419485918256
330.0299900910468	0.75	12	early	em_task_post	n/a	n/a	n/a	n/a	n/a
