onset	duration	trial	trial_type	event_type	response_time	value_stimulus	value_reference	response_decision	response_estimation
0.0	1.5	1	late	stimulus	n/a	90.0	n/a	n/a	n/a
11.5	0.5	1	late	dm_task_pre	n/a	n/a	n/a	n/a	n/a
12.0	0.542363445973024	1	late	dm_task	0.542363445973024	n/a	21.0	-1.0	n/a
12.542363445973024	0.75	1	late	dm_task_post	n/a	n/a	n/a	n/a	n/a
17.5	0.5	1	late	em_task_pre	n/a	n/a	n/a	n/a	n/a
18.0	2.8883536789799003	1	late	em_task	n/a	n/a	n/a	n/a	84.0534935180071
20.8883536789799	0.75	1	late	em_task_post	n/a	n/a	n/a	n/a	n/a
28.0	1.5	2	early	stimulus	n/a	45.0	n/a	n/a	n/a
33.5	0.5	2	early	dm_task_pre	n/a	n/a	n/a	n/a	n/a
34.0	0.566919646924362	2	early	dm_task	0.566919646924362	n/a	-21.0	1.0	n/a
34.56691964692436	0.75	2	early	dm_task_post	n/a	n/a	n/a	n/a	n/a
45.5	0.5	2	early	em_task_pre	n/a	n/a	n/a	n/a	n/a
46.0	3.1966142229502985	2	early	em_task	n/a	n/a	n/a	n/a	37.1815232165483
49.1966142229503	0.75	2	early	em_task_post	n/a	n/a	n/a	n/a	n/a
56.0	1.5	3	late	stimulus	n/a	172.5	n/a	n/a	n/a
67.5	0.5	3	late	dm_task_pre	n/a	n/a	n/a	n/a	n/a
68.0	0.754523415933363	3	late	dm_task	0.754523415933363	n/a	0.0	-1.0	n/a
68.75452341593336	0.75	3	late	dm_task_post	n/a	n/a	n/a	n/a	n/a
73.5	0.5	3	late	em_task_pre	n/a	n/a	n/a	n/a	n/a
74.0	1.4366490899119988	3	late	em_task	n/a	n/a	n/a	n/a	162.162510159205
75.436649089912	0.75	3	late	em_task_post	n/a	n/a	n/a	n/a	n/a
84.0	1.5	4	late	stimulus	n/a	22.5	n/a	n/a	n/a
95.5	0.5	4	late	dm_task_pre	n/a	n/a	n/a	n/a	n/a
96.0	0.477790286997333	4	late	dm_task	0.477790286997333	n/a	21.0	-1.0	n/a
96.47779028699733	0.75	4	late	dm_task_post	n/a	n/a	n/a	n/a	n/a
101.5	0.5	4	late	em_task_pre	n/a	n/a	n/a	n/a	n/a
102.0	2.4772743479115995	4	late	em_task	n/a	n/a	n/a	n/a	19.7965427013967
104.4772743479116	0.75	4	late	em_task_post	n/a	n/a	n/a	n/a	n/a
112.0	1.5	5	early	stimulus	n/a	37.5	n/a	n/a	n/a
117.5	0.5	5	early	dm_task_pre	n/a	n/a	n/a	n/a	n/a
118.0	0.552575234905817	5	early	dm_task	0.552575234905817	n/a	0.0	1.0	n/a
118.55257523490582	0.75	5	early	dm_task_post	n/a	n/a	n/a	n/a	n/a
129.5	0.5	5	early	em_task_pre	n/a	n/a	n/a	n/a	n/a
130.0	1.7154048769735013	5	early	em_task	n/a	n/a	n/a	n/a	32.9443531298534
131.7154048769735	0.75	5	early	em_task_post	n/a	n/a	n/a	n/a	n/a
140.0	1.5	6	early	stimulus	n/a	30.0	n/a	n/a	n/a
145.5	0.5	6	early	dm_task_pre	n/a	n/a	n/a	n/a	n/a
146.0	0.477547457907349	6	early	dm_task	0.477547457907349	n/a	4.0	-1.0	n/a
146.47754745790735	0.75	6	early	dm_task_post	n/a	n/a	n/a	n/a	n/a
157.5	0.5	6	early	em_task_pre	n/a	n/a	n/a	n/a	n/a
158.0	3.2886565659428015	6	early	em_task	n/a	n/a	n/a	n/a	18.977513808817
161.2886565659428	0.75	6	early	em_task_post	n/a	n/a	n/a	n/a	n/a
168.0	1.5	7	late	stimulus	n/a	75.0	n/a	n/a	n/a
179.5	0.5	7	late	dm_task_pre	n/a	n/a	n/a	n/a	n/a
180.0	0.829873760929331	7	late	dm_task	0.829873760929331	n/a	4.0	-1.0	n/a
180.82987376092933	0.75	7	late	dm_task_post	n/a	n/a	n/a	n/a	n/a
185.5	0.5	7	late	em_task_pre	n/a	n/a	n/a	n/a	n/a
186.0	3.1790099189384016	7	late	em_task	n/a	n/a	n/a	n/a	77.3236621847656
189.1790099189384	0.75	7	late	em_task_post	n/a	n/a	n/a	n/a	n/a
196.0	1.5	8	late	stimulus	n/a	150.0	n/a	n/a	n/a
207.5	0.5	8	late	dm_task_pre	n/a	n/a	n/a	n/a	n/a
208.0	0.620895891916007	8	late	dm_task	0.620895891916007	n/a	21.0	-1.0	n/a
208.620895891916	0.75	8	late	dm_task_post	n/a	n/a	n/a	n/a	n/a
213.5	0.5	8	late	em_task_pre	n/a	n/a	n/a	n/a	n/a
214.0	2.2345088409492995	8	late	em_task	n/a	n/a	n/a	n/a	140.651294866151
216.2345088409493	0.75	8	late	em_task_post	n/a	n/a	n/a	n/a	n/a
224.0	1.5	9	late	stimulus	n/a	52.5	n/a	n/a	n/a
235.5	0.5	9	late	dm_task_pre	n/a	n/a	n/a	n/a	n/a
236.0	0.895153256948106	9	late	dm_task	0.895153256948106	n/a	4.0	-1.0	n/a
236.8951532569481	0.75	9	late	dm_task_post	n/a	n/a	n/a	n/a	n/a
241.5	0.5	9	late	em_task_pre	n/a	n/a	n/a	n/a	n/a
242.0	2.0914212099742002	9	late	em_task	n/a	n/a	n/a	n/a	49.803022726524
244.09142120997421	0.75	9	late	em_task_post	n/a	n/a	n/a	n/a	n/a
252.0	1.5	10	late	stimulus	n/a	60.0	n/a	n/a	n/a
263.5	0.5	10	late	dm_task_pre	n/a	n/a	n/a	n/a	n/a
264.0	0.415651749935932	10	late	dm_task	0.415651749935932	n/a	21.0	-1.0	n/a
264.41565174993593	0.75	10	late	dm_task_post	n/a	n/a	n/a	n/a	n/a
269.5	0.5	10	late	em_task_pre	n/a	n/a	n/a	n/a	n/a
270.0	1.5157190680038006	10	late	em_task	n/a	n/a	n/a	n/a	51.4113989106858
271.5157190680038	0.75	10	late	em_task_post	n/a	n/a	n/a	n/a	n/a
280.0	1.5	11	late	stimulus	n/a	127.5	n/a	n/a	n/a
291.5	0.5	11	late	dm_task_pre	n/a	n/a	n/a	n/a	n/a
292.0	0.489785898011178	11	late	dm_task	0.489785898011178	n/a	21.0	-1.0	n/a
292.4897858980112	0.75	11	late	dm_task_post	n/a	n/a	n/a	n/a	n/a
297.5	0.5	11	late	em_task_pre	n/a	n/a	n/a	n/a	n/a
298.0	2.0389247139682993	11	late	em_task	n/a	n/a	n/a	n/a	136.231985918256
300.0389247139683	0.75	11	late	em_task_post	n/a	n/a	n/a	n/a	n/a
308.0	1.5	12	early	stimulus	n/a	112.5	n/a	n/a	n/a
313.5	0.5	12	early	dm_task_pre	n/a	n/a	n/a	n/a	n/a
314.0	0.515133013948798	12	early	dm_task	0.515133013948798	n/a	-4.0	1.0	n/a
314.5151330139488	0.75	12	early	dm_task_post	n/a	n/a	n/a	n/a	n/a
325.5	0.5	12	early	em_task_pre	n/a	n/a	n/a	n/a	n/a
326.0	2.2949853759491994	12	early	em_task	n/a	n/a	n/a	n/a	164.62892783314
328.2949853759492	0.75	12	early	em_task_post	n/a	n/a	n/a	n/a	n/a
