onset	duration	trial	trial_type	event_type	response_time	value_stimulus	value_reference	response_decision	response_estimation
0.0	1.5	1	late	stimulus	n/a	45.0	n/a	n/a	n/a
11.5	0.5	1	late	dm_task_pre	n/a	n/a	n/a	n/a	n/a
12.0	0.922856588149443	1	late	dm_task	0.922856588149443	n/a	0.0	1.0	n/a
12.922856588149443	0.75	1	late	dm_task_post	n/a	n/a	n/a	n/a	n/a
17.5	0.5	1	late	em_task_pre	n/a	n/a	n/a	n/a	n/a
18.0	4.5	1	late	em_task	n/a	n/a	n/a	n/a	n/a
22.5	0.75	1	late	em_task_post	n/a	n/a	n/a	n/a	n/a
28.0	1.5	2	early	stimulus	n/a	30.0	n/a	n/a	n/a
33.5	0.5	2	early	dm_task_pre	n/a	n/a	n/a	n/a	n/a
34.0	0.948045494966209	2	early	dm_task	0.948045494966209	n/a	0.0	-1.0	n/a
34.94804549496621	0.75	2	early	dm_task_post	n/a	n/a	n/a	n/a	n/a
45.5	0.5	2	early	em_task_pre	n/a	n/a	n/a	n/a	n/a
46.0	3.408720958046601	2	early	em_task	n/a	n/a	n/a	n/a	28.1522588881253
49.4087209580466	0.75	2	early	em_task_post	n/a	n/a	n/a	n/a	n/a
56.0	1.5	3	early	stimulus	n/a	142.5	n/a	n/a	n/a
61.5	0.5	3	early	dm_task_pre	n/a	n/a	n/a	n/a	n/a
62.0	0.718271874124184	3	early	dm_task	0.718271874124184	n/a	0.0	-1.0	n/a
62.718271874124184	0.75	3	early	dm_task_post	n/a	n/a	n/a	n/a	n/a
73.5	0.5	3	early	em_task_pre	n/a	n/a	n/a	n/a	n/a
74.0	3.278762744041199	3	early	em_task	n/a	n/a	n/a	n/a	126.945990541409
77.2787627440412	0.75	3	early	em_task_post	n/a	n/a	n/a	n/a	n/a
84.0	1.5	4	early	stimulus	n/a	157.5	n/a	n/a	n/a
89.5	0.5	4	early	dm_task_pre	n/a	n/a	n/a	n/a	n/a
90.0	0.708355408161879	4	early	dm_task	0.708355408161879	n/a	21.0	-1.0	n/a
90.70835540816188	0.75	4	early	dm_task_post	n/a	n/a	n/a	n/a	n/a
101.5	0.5	4	early	em_task_pre	n/a	n/a	n/a	n/a	n/a
102.0	2.5066046840511014	4	early	em_task	n/a	n/a	n/a	n/a	150.99530114608
104.5066046840511	0.75	4	early	em_task_post	n/a	n/a	n/a	n/a	n/a
112.0	1.5	5	late	stimulus	n/a	15.0	n/a	n/a	n/a
123.5	0.5	5	late	dm_task_pre	n/a	n/a	n/a	n/a	n/a
124.0	0.729310986120254	5	late	dm_task	0.729310986120254	n/a	0.0	-1.0	n/a
124.72931098612025	0.75	5	late	dm_task_post	n/a	n/a	n/a	n/a	n/a
129.5	0.5	5	late	em_task_pre	n/a	n/a	n/a	n/a	n/a
130.0	2.775657873135099	5	late	em_task	n/a	n/a	n/a	n/a	8.29745429860847
132.7756578731351	0.75	5	late	em_task_post	n/a	n/a	n/a	n/a	n/a
140.0	1.5	6	late	stimulus	n/a	150.0	n/a	n/a	n/a
151.5	0.5	6	late	dm_task_pre	n/a	n/a	n/a	n/a	n/a
152.0	0.770900064148009	6	late	dm_task	0.770900064148009	n/a	-21.0	1.0	n/a
152.770900064148	0.75	6	late	dm_task_post	n/a	n/a	n/a	n/a	n/a
157.5	0.5	6	late	em_task_pre	n/a	n/a	n/a	n/a	n/a
158.0	2.6852551531046984	6	late	em_task	n/a	n/a	n/a	n/a	144.865127321256
160.6852551531047	0.75	6	late	em_task_post	n/a	n/a	n/a	n/a	n/a
168.0	1.5	7	early	stimulus	n/a	172.5	n/a	n/a	n/a
173.5	0.5	7	early	dm_task_pre	n/a	n/a	n/a	n/a	n/a
174.0	0.663404809078202	7	early	dm_task	0.663404809078202	n/a	-21.0	1.0	n/a
174.6634048090782	0.75	7	early	dm_task_post	n/a	n/a	n/a	n/a	n/a
185.5	0.5	7	early	em_task_pre	n/a	n/a	n/a	n/a	n/a
186.0	1.7914561200887	7	early	em_task	n/a	n/a	n/a	n/a	160.14629076631
187.7914561200887	0.75	7	early	em_task_post	n/a	n/a	n/a	n/a	n/a
196.0	1.5	8	early	stimulus	n/a	60.0	n/a	n/a	n/a
201.5	0.5	8	early	dm_task_pre	n/a	n/a	n/a	n/a	n/a
202.0	0.851646773982793	8	early	dm_task	0.851646773982793	n/a	21.0	-1.0	n/a
202.8516467739828	0.75	8	early	dm_task_post	n/a	n/a	n/a	n/a	n/a
213.5	0.5	8	early	em_task_pre	n/a	n/a	n/a	n/a	n/a
214.0	3.0307175279594993	8	early	em_task	n/a	n/a	n/a	n/a	63.3049165309388
217.0307175279595	0.75	8	early	em_task_post	n/a	n/a	n/a	n/a	n/a
224.0	1.5	9	late	stimulus	n/a	112.5	n/a	n/a	n/a
235.5	0.5	9	late	dm_task_pre	n/a	n/a	n/a	n/a	n/a
236.0	0.739706521155313	9	late	dm_task	0.739706521155313	n/a	4.0	-1.0	n/a
236.7397065211553	0.75	9	late	dm_task_post	n/a	n/a	n/a	n/a	n/a
241.5	0.5	9	late	em_task_pre	n/a	n/a	n/a	n/a	n/a
242.0	3.5563328571152013	9	late	em_task	n/a	n/a	n/a	n/a	105.093239837297
245.5563328571152	0.75	9	late	em_task_post	n/a	n/a	n/a	n/a	n/a
252.0	1.5	10	late	stimulus	n/a	90.0	n/a	n/a	n/a
263.5	0.5	10	late	dm_task_pre	n/a	n/a	n/a	n/a	n/a
264.0	0.582250187173486	10	late	dm_task	0.582250187173486	n/a	21.0	-1.0	n/a
264.5822501871735	0.75	10	late	dm_task_post	n/a	n/a	n/a	n/a	n/a
269.5	0.5	10	late	em_task_pre	n/a	n/a	n/a	n/a	n/a
270.0	2.7764128560665995	10	late	em_task	n/a	n/a	n/a	n/a	84.5362322495169
272.7764128560666	0.75	10	late	em_task_post	n/a	n/a	n/a	n/a	n/a
280.0	1.5	11	late	stimulus	n/a	120.0	n/a	n/a	n/a
291.5	0.5	11	late	dm_task_pre	n/a	n/a	n/a	n/a	n/a
292.0	0.55170222511515	11	late	dm_task	0.55170222511515	n/a	-4.0	-1.0	n/a
292.55170222511515	0.75	11	late	dm_task_post	n/a	n/a	n/a	n/a	n/a
297.5	0.5	11	late	em_task_pre	n/a	n/a	n/a	n/a	n/a
298.0	2.1339352841023	11	late	em_task	n/a	n/a	n/a	n/a	114.922235655623
300.1339352841023	0.75	11	late	em_task_post	n/a	n/a	n/a	n/a	n/a
308.0	1.5	12	early	stimulus	n/a	37.5	n/a	n/a	n/a
313.5	0.5	12	early	dm_task_pre	n/a	n/a	n/a	n/a	n/a
314.0	0.794972791103646	12	early	dm_task	0.794972791103646	n/a	0.0	-1.0	n/a
314.79497279110365	0.75	12	early	dm_task_post	n/a	n/a	n/a	n/a	n/a
325.5	0.5	12	early	em_task_pre	n/a	n/a	n/a	n/a	n/a
326.0	2.489890835946401	12	early	em_task	n/a	n/a	n/a	n/a	21.678972771055
328.4898908359464	0.75	12	early	em_task_post	n/a	n/a	n/a	n/a	n/a
