onset	duration	trial	trial_type	event_type	response_time	value_stimulus	value_reference	response_decision	response_estimation
0.0	1.5	1	early	stimulus	n/a	60.0	n/a	n/a	n/a
5.5	0.5	1	early	dm_task_pre	n/a	n/a	n/a	n/a	n/a
6.0	0.539308138000251	1	early	dm_task	0.539308138000251	n/a	4.0	-1.0	n/a
6.539308138000251	0.75	1	early	dm_task_post	n/a	n/a	n/a	n/a	n/a
17.5	0.5	1	early	em_task_pre	n/a	n/a	n/a	n/a	n/a
18.0	1.1352208930001986	1	early	em_task	n/a	n/a	n/a	n/a	52.8103781860594
19.1352208930002	0.75	1	early	em_task_post	n/a	n/a	n/a	n/a	n/a
28.0	1.5	2	late	stimulus	n/a	7.5	n/a	n/a	n/a
39.5	0.5	2	late	dm_task_pre	n/a	n/a	n/a	n/a	n/a
40.0	0.576192504000119	2	late	dm_task	0.576192504000119	n/a	4.0	-1.0	n/a
40.57619250400012	0.75	2	late	dm_task_post	n/a	n/a	n/a	n/a	n/a
45.5	0.5	2	late	em_task_pre	n/a	n/a	n/a	n/a	n/a
46.0	3.590780992999999	2	late	em_task	n/a	n/a	n/a	n/a	6.39412618524852
49.590780992999996	0.75	2	late	em_task_post	n/a	n/a	n/a	n/a	n/a
56.0	1.5	3	early	stimulus	n/a	165.0	n/a	n/a	n/a
61.5	0.5	3	early	dm_task_pre	n/a	n/a	n/a	n/a	n/a
62.0	0.685006091000105	3	early	dm_task	0.685006091000105	n/a	-21.0	-1.0	n/a
62.685006091000105	0.75	3	early	dm_task_post	n/a	n/a	n/a	n/a	n/a
73.5	0.5	3	early	em_task_pre	n/a	n/a	n/a	n/a	n/a
74.0	2.2464592400000996	3	early	em_task	n/a	n/a	n/a	n/a	156.167881656429
76.24645924000009	0.75	3	early	em_task_post	n/a	n/a	n/a	n/a	n/a
84.0	1.5	4	early	stimulus	n/a	0.0	n/a	n/a	n/a
89.5	0.5	4	early	dm_task_pre	n/a	n/a	n/a	n/a	n/a
90.0	0.824329331000172	4	early	dm_task	0.824329331000172	n/a	-21.0	1.0	n/a
90.82432933100017	0.75	4	early	dm_task_post	n/a	n/a	n/a	n/a	n/a
101.5	0.5	4	early	em_task_pre	n/a	n/a	n/a	n/a	n/a
102.0	2.3207527650002007	4	early	em_task	n/a	n/a	n/a	n/a	176.830692538911
104.32075276500021	0.75	4	early	em_task_post	n/a	n/a	n/a	n/a	n/a
112.0	1.5	5	early	stimulus	n/a	82.5	n/a	n/a	n/a
117.5	0.5	5	early	dm_task_pre	n/a	n/a	n/a	n/a	n/a
118.0	0.564570715000173	5	early	dm_task	0.564570715000173	n/a	4.0	-1.0	n/a
118.56457071500017	0.75	5	early	dm_task_post	n/a	n/a	n/a	n/a	n/a
129.5	0.5	5	early	em_task_pre	n/a	n/a	n/a	n/a	n/a
130.0	2.877790404000301	5	early	em_task	n/a	n/a	n/a	n/a	72.8182766743003
132.8777904040003	0.75	5	early	em_task_post	n/a	n/a	n/a	n/a	n/a
140.0	1.5	6	early	stimulus	n/a	37.5	n/a	n/a	n/a
145.5	0.5	6	early	dm_task_pre	n/a	n/a	n/a	n/a	n/a
146.0	0.487976275000165	6	early	dm_task	0.487976275000165	n/a	21.0	-1.0	n/a
146.48797627500016	0.75	6	early	dm_task_post	n/a	n/a	n/a	n/a	n/a
157.5	0.5	6	early	em_task_pre	n/a	n/a	n/a	n/a	n/a
158.0	1.8155482770002997	6	early	em_task	n/a	n/a	n/a	n/a	34.4182042591091
159.8155482770003	0.75	6	early	em_task_post	n/a	n/a	n/a	n/a	n/a
168.0	1.5	7	late	stimulus	n/a	45.0	n/a	n/a	n/a
179.5	0.5	7	late	dm_task_pre	n/a	n/a	n/a	n/a	n/a
180.0	0.509371333000217	7	late	dm_task	0.509371333000217	n/a	21.0	-1.0	n/a
180.50937133300022	0.75	7	late	dm_task_post	n/a	n/a	n/a	n/a	n/a
185.5	0.5	7	late	em_task_pre	n/a	n/a	n/a	n/a	n/a
186.0	2.324094665000299	7	late	em_task	n/a	n/a	n/a	n/a	49.0740256370431
188.3240946650003	0.75	7	late	em_task_post	n/a	n/a	n/a	n/a	n/a
196.0	1.5	8	late	stimulus	n/a	105.0	n/a	n/a	n/a
207.5	0.5	8	late	dm_task_pre	n/a	n/a	n/a	n/a	n/a
208.0	0.54881092200003	8	late	dm_task	0.54881092200003	n/a	21.0	-1.0	n/a
208.54881092200003	0.75	8	late	dm_task_post	n/a	n/a	n/a	n/a	n/a
213.5	0.5	8	late	em_task_pre	n/a	n/a	n/a	n/a	n/a
214.0	1.3642175610002987	8	late	em_task	n/a	n/a	n/a	n/a	102.514759855096
215.3642175610003	0.75	8	late	em_task_post	n/a	n/a	n/a	n/a	n/a
224.0	1.5	9	early	stimulus	n/a	135.0	n/a	n/a	n/a
229.5	0.5	9	early	dm_task_pre	n/a	n/a	n/a	n/a	n/a
230.0	0.673555781000232	9	early	dm_task	0.673555781000232	n/a	0.0	-1.0	n/a
230.67355578100023	0.75	9	early	dm_task_post	n/a	n/a	n/a	n/a	n/a
241.5	0.5	9	early	em_task_pre	n/a	n/a	n/a	n/a	n/a
242.0	3.385383294999901	9	early	em_task	n/a	n/a	n/a	n/a	133.13356929674
245.3853832949999	0.75	9	early	em_task_post	n/a	n/a	n/a	n/a	n/a
252.0	1.5	10	late	stimulus	n/a	97.5	n/a	n/a	n/a
263.5	0.5	10	late	dm_task_pre	n/a	n/a	n/a	n/a	n/a
264.0	0.511475969000003	10	late	dm_task	0.511475969000003	n/a	21.0	-1.0	n/a
264.511475969	0.75	10	late	dm_task_post	n/a	n/a	n/a	n/a	n/a
269.5	0.5	10	late	em_task_pre	n/a	n/a	n/a	n/a	n/a
270.0	1.5934967070001989	10	late	em_task	n/a	n/a	n/a	n/a	98.5379238310838
271.5934967070002	0.75	10	late	em_task_post	n/a	n/a	n/a	n/a	n/a
280.0	1.5	11	late	stimulus	n/a	22.5	n/a	n/a	n/a
291.5	0.5	11	late	dm_task_pre	n/a	n/a	n/a	n/a	n/a
292.0	0.552920378000181	11	late	dm_task	0.552920378000181	n/a	21.0	-1.0	n/a
292.5529203780002	0.75	11	late	dm_task_post	n/a	n/a	n/a	n/a	n/a
297.5	0.5	11	late	em_task_pre	n/a	n/a	n/a	n/a	n/a
298.0	1.2328828190001992	11	late	em_task	n/a	n/a	n/a	n/a	21.8066188842158
299.2328828190002	0.75	11	late	em_task_post	n/a	n/a	n/a	n/a	n/a
308.0	1.5	12	late	stimulus	n/a	30.0	n/a	n/a	n/a
319.5	0.5	12	late	dm_task_pre	n/a	n/a	n/a	n/a	n/a
320.0	0.608538322000186	12	late	dm_task	0.608538322000186	n/a	4.0	-1.0	n/a
320.6085383220002	0.75	12	late	dm_task_post	n/a	n/a	n/a	n/a	n/a
325.5	0.5	12	late	em_task_pre	n/a	n/a	n/a	n/a	n/a
326.0	1.655967039000199	12	late	em_task	n/a	n/a	n/a	n/a	19.2404982289262
327.6559670390002	0.75	12	late	em_task_post	n/a	n/a	n/a	n/a	n/a
