onset	duration	trial	trial_type	event_type	response_time	value_stimulus	value_reference	response_decision	response_estimation
0.0	1.5	1	early	stimulus	n/a	22.5	n/a	n/a	n/a
5.5	0.5	1	early	dm_task_pre	n/a	n/a	n/a	n/a	n/a
6.0	0.674235459999181	1	early	dm_task	0.674235459999181	n/a	21.0	-1.0	n/a
6.674235459999181	0.75	1	early	dm_task_post	n/a	n/a	n/a	n/a	n/a
17.5	0.5	1	early	em_task_pre	n/a	n/a	n/a	n/a	n/a
18.0	1.6316700289899018	1	early	em_task	n/a	n/a	n/a	n/a	31.766236391919
19.6316700289899	0.75	1	early	em_task_post	n/a	n/a	n/a	n/a	n/a
28.0	1.5	2	late	stimulus	n/a	165.0	n/a	n/a	n/a
39.5	0.5	2	late	dm_task_pre	n/a	n/a	n/a	n/a	n/a
40.0	1.15272275498137	2	late	dm_task	1.15272275498137	n/a	21.0	-1.0	n/a
41.15272275498137	0.75	2	late	dm_task_post	n/a	n/a	n/a	n/a	n/a
45.5	0.5	2	late	em_task_pre	n/a	n/a	n/a	n/a	n/a
46.0	3.1725146719836985	2	late	em_task	n/a	n/a	n/a	n/a	168.126394254985
49.1725146719837	0.75	2	late	em_task_post	n/a	n/a	n/a	n/a	n/a
56.0	1.5	3	early	stimulus	n/a	150.0	n/a	n/a	n/a
61.5	0.5	3	early	dm_task_pre	n/a	n/a	n/a	n/a	n/a
62.0	0.677401323977392	3	early	dm_task	0.677401323977392	n/a	4.0	1.0	n/a
62.67740132397739	0.75	3	early	dm_task_post	n/a	n/a	n/a	n/a	n/a
73.5	0.5	3	early	em_task_pre	n/a	n/a	n/a	n/a	n/a
74.0	2.999654963990899	3	early	em_task	n/a	n/a	n/a	n/a	145.332288095224
76.9996549639909	0.75	3	early	em_task_post	n/a	n/a	n/a	n/a	n/a
84.0	1.5	4	early	stimulus	n/a	52.5	n/a	n/a	n/a
89.5	0.5	4	early	dm_task_pre	n/a	n/a	n/a	n/a	n/a
90.0	0.854853295983048	4	early	dm_task	0.854853295983048	n/a	-4.0	-1.0	n/a
90.85485329598305	0.75	4	early	dm_task_post	n/a	n/a	n/a	n/a	n/a
101.5	0.5	4	early	em_task_pre	n/a	n/a	n/a	n/a	n/a
102.0	4.5	4	early	em_task	n/a	n/a	n/a	n/a	n/a
106.5	0.75	4	early	em_task_post	n/a	n/a	n/a	n/a	n/a
112.0	1.5	5	early	stimulus	n/a	157.5	n/a	n/a	n/a
117.5	0.5	5	early	dm_task_pre	n/a	n/a	n/a	n/a	n/a
118.0	0.828497465001419	5	early	dm_task	0.828497465001419	n/a	-4.0	-1.0	n/a
118.82849746500142	0.75	5	early	dm_task_post	n/a	n/a	n/a	n/a	n/a
129.5	0.5	5	early	em_task_pre	n/a	n/a	n/a	n/a	n/a
130.0	3.800546322978299	5	early	em_task	n/a	n/a	n/a	n/a	138.134939889531
133.8005463229783	0.75	5	early	em_task_post	n/a	n/a	n/a	n/a	n/a
140.0	1.5	6	early	stimulus	n/a	97.5	n/a	n/a	n/a
145.5	0.5	6	early	dm_task_pre	n/a	n/a	n/a	n/a	n/a
146.0	1.5	6	early	dm_task	n/a	n/a	-21.0	n/a	n/a
147.5	0.75	6	early	dm_task_post	n/a	n/a	n/a	n/a	n/a
157.5	0.5	6	early	em_task_pre	n/a	n/a	n/a	n/a	n/a
158.0	2.8427965909941015	6	early	em_task	n/a	n/a	n/a	n/a	111.774690656099
160.8427965909941	0.75	6	early	em_task_post	n/a	n/a	n/a	n/a	n/a
168.0	1.5	7	early	stimulus	n/a	112.5	n/a	n/a	n/a
173.5	0.5	7	early	dm_task_pre	n/a	n/a	n/a	n/a	n/a
174.0	1.07998512897757	7	early	dm_task	1.07998512897757	n/a	0.0	1.0	n/a
175.07998512897757	0.75	7	early	dm_task_post	n/a	n/a	n/a	n/a	n/a
185.5	0.5	7	early	em_task_pre	n/a	n/a	n/a	n/a	n/a
186.0	3.636041404999599	7	early	em_task	n/a	n/a	n/a	n/a	100.663088413822
189.6360414049996	0.75	7	early	em_task_post	n/a	n/a	n/a	n/a	n/a
196.0	1.5	8	early	stimulus	n/a	105.0	n/a	n/a	n/a
201.5	0.5	8	early	dm_task_pre	n/a	n/a	n/a	n/a	n/a
202.0	0.656993184995372	8	early	dm_task	0.656993184995372	n/a	21.0	-1.0	n/a
202.65699318499537	0.75	8	early	dm_task_post	n/a	n/a	n/a	n/a	n/a
213.5	0.5	8	early	em_task_pre	n/a	n/a	n/a	n/a	n/a
214.0	2.511953673994899	8	early	em_task	n/a	n/a	n/a	n/a	105.741858253035
216.5119536739949	0.75	8	early	em_task_post	n/a	n/a	n/a	n/a	n/a
224.0	1.5	9	early	stimulus	n/a	82.5	n/a	n/a	n/a
229.5	0.5	9	early	dm_task_pre	n/a	n/a	n/a	n/a	n/a
230.0	1.09860742799356	9	early	dm_task	1.09860742799356	n/a	0.0	-1.0	n/a
231.09860742799356	0.75	9	early	dm_task_post	n/a	n/a	n/a	n/a	n/a
241.5	0.5	9	early	em_task_pre	n/a	n/a	n/a	n/a	n/a
242.0	2.3189999439928	9	early	em_task	n/a	n/a	n/a	n/a	69.6430065200178
244.3189999439928	0.75	9	early	em_task_post	n/a	n/a	n/a	n/a	n/a
252.0	1.5	10	late	stimulus	n/a	90.0	n/a	n/a	n/a
263.5	0.5	10	late	dm_task_pre	n/a	n/a	n/a	n/a	n/a
264.0	0.643307864986127	10	late	dm_task	0.643307864986127	n/a	21.0	-1.0	n/a
264.6433078649861	0.75	10	late	dm_task_post	n/a	n/a	n/a	n/a	n/a
269.5	0.5	10	late	em_task_pre	n/a	n/a	n/a	n/a	n/a
270.0	3.3289242379833013	10	late	em_task	n/a	n/a	n/a	n/a	86.9479566707556
273.3289242379833	0.75	10	late	em_task_post	n/a	n/a	n/a	n/a	n/a
280.0	1.5	11	early	stimulus	n/a	15.0	n/a	n/a	n/a
285.5	0.5	11	early	dm_task_pre	n/a	n/a	n/a	n/a	n/a
286.0	0.632609522988787	11	early	dm_task	0.632609522988787	n/a	21.0	-1.0	n/a
286.6326095229888	0.75	11	early	dm_task_post	n/a	n/a	n/a	n/a	n/a
297.5	0.5	11	early	em_task_pre	n/a	n/a	n/a	n/a	n/a
298.0	2.7722035640036005	11	early	em_task	n/a	n/a	n/a	n/a	0.227686300018092
300.7722035640036	0.75	11	early	em_task_post	n/a	n/a	n/a	n/a	n/a
308.0	1.5	12	early	stimulus	n/a	142.5	n/a	n/a	n/a
313.5	0.5	12	early	dm_task_pre	n/a	n/a	n/a	n/a	n/a
314.0	0.708449127996573	12	early	dm_task	0.708449127996573	n/a	0.0	1.0	n/a
314.7084491279966	0.75	12	early	dm_task_post	n/a	n/a	n/a	n/a	n/a
325.5	0.5	12	early	em_task_pre	n/a	n/a	n/a	n/a	n/a
326.0	4.5	12	early	em_task	n/a	n/a	n/a	n/a	n/a
330.5	0.75	12	early	em_task_post	n/a	n/a	n/a	n/a	n/a
