onset	duration	trial	trial_type	event_type	response_time	value_stimulus	value_reference	response_decision	response_estimation
0.0	1.5	1	early	stimulus	n/a	60.0	n/a	n/a	n/a
5.5	0.5	1	early	dm_task_pre	n/a	n/a	n/a	n/a	n/a
6.0	0.743608274991857	1	early	dm_task	0.743608274991857	n/a	21.0	-1.0	n/a
6.743608274991857	0.75	1	early	dm_task_post	n/a	n/a	n/a	n/a	n/a
17.5	0.5	1	early	em_task_pre	n/a	n/a	n/a	n/a	n/a
18.0	2.865505545996701	1	early	em_task	n/a	n/a	n/a	n/a	58.8233581528127
20.8655055459967	0.75	1	early	em_task_post	n/a	n/a	n/a	n/a	n/a
28.0	1.5	2	early	stimulus	n/a	45.0	n/a	n/a	n/a
33.5	0.5	2	early	dm_task_pre	n/a	n/a	n/a	n/a	n/a
34.0	0.684744910991867	2	early	dm_task	0.684744910991867	n/a	4.0	-1.0	n/a
34.68474491099187	0.75	2	early	dm_task_post	n/a	n/a	n/a	n/a	n/a
45.5	0.5	2	early	em_task_pre	n/a	n/a	n/a	n/a	n/a
46.0	2.4402381730033014	2	early	em_task	n/a	n/a	n/a	n/a	43.162751953217
48.4402381730033	0.75	2	early	em_task_post	n/a	n/a	n/a	n/a	n/a
56.0	1.5	3	early	stimulus	n/a	37.5	n/a	n/a	n/a
61.5	0.5	3	early	dm_task_pre	n/a	n/a	n/a	n/a	n/a
62.0	0.761221370994463	3	early	dm_task	0.761221370994463	n/a	0.0	-1.0	n/a
62.76122137099446	0.75	3	early	dm_task_post	n/a	n/a	n/a	n/a	n/a
73.5	0.5	3	early	em_task_pre	n/a	n/a	n/a	n/a	n/a
74.0	2.9978993849945006	3	early	em_task	n/a	n/a	n/a	n/a	41.5096186145072
76.9978993849945	0.75	3	early	em_task_post	n/a	n/a	n/a	n/a	n/a
84.0	1.5	4	early	stimulus	n/a	120.0	n/a	n/a	n/a
89.5	0.5	4	early	dm_task_pre	n/a	n/a	n/a	n/a	n/a
90.0	0.586868698999751	4	early	dm_task	0.586868698999751	n/a	4.0	-1.0	n/a
90.58686869899975	0.75	4	early	dm_task_post	n/a	n/a	n/a	n/a	n/a
101.5	0.5	4	early	em_task_pre	n/a	n/a	n/a	n/a	n/a
102.0	3.4747201360004993	4	early	em_task	n/a	n/a	n/a	n/a	118.902904158142
105.4747201360005	0.75	4	early	em_task_post	n/a	n/a	n/a	n/a	n/a
112.0	1.5	5	early	stimulus	n/a	135.0	n/a	n/a	n/a
117.5	0.5	5	early	dm_task_pre	n/a	n/a	n/a	n/a	n/a
118.0	0.595935028992244	5	early	dm_task	0.595935028992244	n/a	21.0	-1.0	n/a
118.59593502899224	0.75	5	early	dm_task_post	n/a	n/a	n/a	n/a	n/a
129.5	0.5	5	early	em_task_pre	n/a	n/a	n/a	n/a	n/a
130.0	2.6682080629980014	5	early	em_task	n/a	n/a	n/a	n/a	126.898653340743
132.668208062998	0.75	5	early	em_task_post	n/a	n/a	n/a	n/a	n/a
140.0	1.5	6	early	stimulus	n/a	90.0	n/a	n/a	n/a
145.5	0.5	6	early	dm_task_pre	n/a	n/a	n/a	n/a	n/a
146.0	0.58868911099853	6	early	dm_task	0.58868911099853	n/a	-21.0	1.0	n/a
146.58868911099853	0.75	6	early	dm_task_post	n/a	n/a	n/a	n/a	n/a
157.5	0.5	6	early	em_task_pre	n/a	n/a	n/a	n/a	n/a
158.0	3.3425760090031	6	early	em_task	n/a	n/a	n/a	n/a	88.8823746599575
161.3425760090031	0.75	6	early	em_task_post	n/a	n/a	n/a	n/a	n/a
168.0	1.5	7	late	stimulus	n/a	172.5	n/a	n/a	n/a
179.5	0.5	7	late	dm_task_pre	n/a	n/a	n/a	n/a	n/a
180.0	0.632055705005769	7	late	dm_task	0.632055705005769	n/a	21.0	-1.0	n/a
180.63205570500577	0.75	7	late	dm_task_post	n/a	n/a	n/a	n/a	n/a
185.5	0.5	7	late	em_task_pre	n/a	n/a	n/a	n/a	n/a
186.0	2.4684081970045	7	late	em_task	n/a	n/a	n/a	n/a	165.029718200791
188.4684081970045	0.75	7	late	em_task_post	n/a	n/a	n/a	n/a	n/a
196.0	1.5	8	late	stimulus	n/a	22.5	n/a	n/a	n/a
207.5	0.5	8	late	dm_task_pre	n/a	n/a	n/a	n/a	n/a
208.0	0.774604083999293	8	late	dm_task	0.774604083999293	n/a	4.0	-1.0	n/a
208.7746040839993	0.75	8	late	dm_task_post	n/a	n/a	n/a	n/a	n/a
213.5	0.5	8	late	em_task_pre	n/a	n/a	n/a	n/a	n/a
214.0	2.6951360910024995	8	late	em_task	n/a	n/a	n/a	n/a	17.218775323313
216.6951360910025	0.75	8	late	em_task_post	n/a	n/a	n/a	n/a	n/a
224.0	1.5	9	late	stimulus	n/a	52.5	n/a	n/a	n/a
235.5	0.5	9	late	dm_task_pre	n/a	n/a	n/a	n/a	n/a
236.0	0.750803457005532	9	late	dm_task	0.750803457005532	n/a	-4.0	-1.0	n/a
236.75080345700553	0.75	9	late	dm_task_post	n/a	n/a	n/a	n/a	n/a
241.5	0.5	9	late	em_task_pre	n/a	n/a	n/a	n/a	n/a
242.0	2.752340998005799	9	late	em_task	n/a	n/a	n/a	n/a	64.2202597746756
244.7523409980058	0.75	9	late	em_task_post	n/a	n/a	n/a	n/a	n/a
252.0	1.5	10	early	stimulus	n/a	30.0	n/a	n/a	n/a
257.5	0.5	10	early	dm_task_pre	n/a	n/a	n/a	n/a	n/a
258.0	0.491664084998774	10	early	dm_task	0.491664084998774	n/a	-21.0	1.0	n/a
258.4916640849988	0.75	10	early	dm_task_post	n/a	n/a	n/a	n/a	n/a
269.5	0.5	10	early	em_task_pre	n/a	n/a	n/a	n/a	n/a
270.0	3.1798860379931	10	early	em_task	n/a	n/a	n/a	n/a	21.2483670052863
273.1798860379931	0.75	10	early	em_task_post	n/a	n/a	n/a	n/a	n/a
280.0	1.5	11	late	stimulus	n/a	165.0	n/a	n/a	n/a
291.5	0.5	11	late	dm_task_pre	n/a	n/a	n/a	n/a	n/a
292.0	1.08558308800275	11	late	dm_task	1.08558308800275	n/a	-4.0	1.0	n/a
293.08558308800275	0.75	11	late	dm_task_post	n/a	n/a	n/a	n/a	n/a
297.5	0.5	11	late	em_task_pre	n/a	n/a	n/a	n/a	n/a
298.0	2.504531158003399	11	late	em_task	n/a	n/a	n/a	n/a	167.182171366501
300.5045311580034	0.75	11	late	em_task_post	n/a	n/a	n/a	n/a	n/a
308.0	1.5	12	late	stimulus	n/a	7.5	n/a	n/a	n/a
319.5	0.5	12	late	dm_task_pre	n/a	n/a	n/a	n/a	n/a
320.0	1.29496066499269	12	late	dm_task	1.29496066499269	n/a	-4.0	1.0	n/a
321.2949606649927	0.75	12	late	dm_task_post	n/a	n/a	n/a	n/a	n/a
325.5	0.5	12	late	em_task_pre	n/a	n/a	n/a	n/a	n/a
326.0	3.4982722739950987	12	late	em_task	n/a	n/a	n/a	n/a	16.8981399782485
329.4982722739951	0.75	12	late	em_task_post	n/a	n/a	n/a	n/a	n/a
