onset	duration	trial	trial_type	event_type	response_time	value_stimulus	value_reference	response_decision	response_estimation
0.0	1.5	1	late	stimulus	n/a	157.5	n/a	n/a	n/a
11.5	0.5	1	late	dm_task_pre	n/a	n/a	n/a	n/a	n/a
12.0	0.905528181989212	1	late	dm_task	0.905528181989212	n/a	-4.0	1.0	n/a
12.905528181989212	0.75	1	late	dm_task_post	n/a	n/a	n/a	n/a	n/a
17.5	0.5	1	late	em_task_pre	n/a	n/a	n/a	n/a	n/a
18.0	2.9267316350014987	1	late	em_task	n/a	n/a	n/a	n/a	144.744744364501
20.9267316350015	0.75	1	late	em_task_post	n/a	n/a	n/a	n/a	n/a
28.0	1.5	2	early	stimulus	n/a	120.0	n/a	n/a	n/a
33.5	0.5	2	early	dm_task_pre	n/a	n/a	n/a	n/a	n/a
34.0	1.19571581599303	2	early	dm_task	1.19571581599303	n/a	21.0	-1.0	n/a
35.195715815993026	0.75	2	early	dm_task_post	n/a	n/a	n/a	n/a	n/a
45.5	0.5	2	early	em_task_pre	n/a	n/a	n/a	n/a	n/a
46.0	3.0011800310021	2	early	em_task	n/a	n/a	n/a	n/a	121.008040174703
49.0011800310021	0.75	2	early	em_task_post	n/a	n/a	n/a	n/a	n/a
56.0	1.5	3	late	stimulus	n/a	37.5	n/a	n/a	n/a
67.5	0.5	3	late	dm_task_pre	n/a	n/a	n/a	n/a	n/a
68.0	0.908629313998972	3	late	dm_task	0.908629313998972	n/a	-21.0	1.0	n/a
68.90862931399897	0.75	3	late	dm_task_post	n/a	n/a	n/a	n/a	n/a
73.5	0.5	3	late	em_task_pre	n/a	n/a	n/a	n/a	n/a
74.0	4.5	3	late	em_task	n/a	n/a	n/a	n/a	n/a
78.5	0.75	3	late	em_task_post	n/a	n/a	n/a	n/a	n/a
84.0	1.5	4	early	stimulus	n/a	15.0	n/a	n/a	n/a
89.5	0.5	4	early	dm_task_pre	n/a	n/a	n/a	n/a	n/a
90.0	0.915752307992079	4	early	dm_task	0.915752307992079	n/a	21.0	-1.0	n/a
90.91575230799208	0.75	4	early	dm_task_post	n/a	n/a	n/a	n/a	n/a
101.5	0.5	4	early	em_task_pre	n/a	n/a	n/a	n/a	n/a
102.0	2.9192669740005	4	early	em_task	n/a	n/a	n/a	n/a	9.65719961638834
104.9192669740005	0.75	4	early	em_task_post	n/a	n/a	n/a	n/a	n/a
112.0	1.5	5	early	stimulus	n/a	97.5	n/a	n/a	n/a
117.5	0.5	5	early	dm_task_pre	n/a	n/a	n/a	n/a	n/a
118.0	0.707458887001849	5	early	dm_task	0.707458887001849	n/a	4.0	1.0	n/a
118.70745888700185	0.75	5	early	dm_task_post	n/a	n/a	n/a	n/a	n/a
129.5	0.5	5	early	em_task_pre	n/a	n/a	n/a	n/a	n/a
130.0	3.329184158996199	5	early	em_task	n/a	n/a	n/a	n/a	102.857912400674
133.3291841589962	0.75	5	early	em_task_post	n/a	n/a	n/a	n/a	n/a
140.0	1.5	6	late	stimulus	n/a	45.0	n/a	n/a	n/a
151.5	0.5	6	late	dm_task_pre	n/a	n/a	n/a	n/a	n/a
152.0	0.884528752998449	6	late	dm_task	0.884528752998449	n/a	-21.0	1.0	n/a
152.88452875299845	0.75	6	late	dm_task_post	n/a	n/a	n/a	n/a	n/a
157.5	0.5	6	late	em_task_pre	n/a	n/a	n/a	n/a	n/a
158.0	4.071602921991101	6	late	em_task	n/a	n/a	n/a	n/a	49.7295007889308
162.0716029219911	0.75	6	late	em_task_post	n/a	n/a	n/a	n/a	n/a
168.0	1.5	7	late	stimulus	n/a	22.5	n/a	n/a	n/a
179.5	0.5	7	late	dm_task_pre	n/a	n/a	n/a	n/a	n/a
180.0	1.04411741399963	7	late	dm_task	1.04411741399963	n/a	0.0	-1.0	n/a
181.04411741399963	0.75	7	late	dm_task_post	n/a	n/a	n/a	n/a	n/a
185.5	0.5	7	late	em_task_pre	n/a	n/a	n/a	n/a	n/a
186.0	2.8298077779909008	7	late	em_task	n/a	n/a	n/a	n/a	21.658549302929
188.8298077779909	0.75	7	late	em_task_post	n/a	n/a	n/a	n/a	n/a
196.0	1.5	8	late	stimulus	n/a	7.5	n/a	n/a	n/a
207.5	0.5	8	late	dm_task_pre	n/a	n/a	n/a	n/a	n/a
208.0	1.15423902099428	8	late	dm_task	1.15423902099428	n/a	-4.0	-1.0	n/a
209.15423902099428	0.75	8	late	dm_task_post	n/a	n/a	n/a	n/a	n/a
213.5	0.5	8	late	em_task_pre	n/a	n/a	n/a	n/a	n/a
214.0	3.0071731119970018	8	late	em_task	n/a	n/a	n/a	n/a	13.7913286480979
217.007173111997	0.75	8	late	em_task_post	n/a	n/a	n/a	n/a	n/a
224.0	1.5	9	late	stimulus	n/a	60.0	n/a	n/a	n/a
235.5	0.5	9	late	dm_task_pre	n/a	n/a	n/a	n/a	n/a
236.0	1.5	9	late	dm_task	n/a	n/a	21.0	n/a	n/a
237.5	0.75	9	late	dm_task_post	n/a	n/a	n/a	n/a	n/a
241.5	0.5	9	late	em_task_pre	n/a	n/a	n/a	n/a	n/a
242.0	3.465024536999401	9	late	em_task	n/a	n/a	n/a	n/a	15.4472015230392
245.4650245369994	0.75	9	late	em_task_post	n/a	n/a	n/a	n/a	n/a
252.0	1.5	10	late	stimulus	n/a	67.5	n/a	n/a	n/a
263.5	0.5	10	late	dm_task_pre	n/a	n/a	n/a	n/a	n/a
264.0	1.32177972199861	10	late	dm_task	1.32177972199861	n/a	4.0	-1.0	n/a
265.3217797219986	0.75	10	late	dm_task_post	n/a	n/a	n/a	n/a	n/a
269.5	0.5	10	late	em_task_pre	n/a	n/a	n/a	n/a	n/a
270.0	3.5899689119979	10	late	em_task	n/a	n/a	n/a	n/a	58.3100595134141
273.5899689119979	0.75	10	late	em_task_post	n/a	n/a	n/a	n/a	n/a
280.0	1.5	11	early	stimulus	n/a	90.0	n/a	n/a	n/a
285.5	0.5	11	early	dm_task_pre	n/a	n/a	n/a	n/a	n/a
286.0	0.895339700000477	11	early	dm_task	0.895339700000477	n/a	0.0	-1.0	n/a
286.8953397000005	0.75	11	early	dm_task_post	n/a	n/a	n/a	n/a	n/a
297.5	0.5	11	early	em_task_pre	n/a	n/a	n/a	n/a	n/a
298.0	3.333887299988401	11	early	em_task	n/a	n/a	n/a	n/a	91.1128074458228
301.3338872999884	0.75	11	early	em_task_post	n/a	n/a	n/a	n/a	n/a
308.0	1.5	12	late	stimulus	n/a	127.5	n/a	n/a	n/a
319.5	0.5	12	late	dm_task_pre	n/a	n/a	n/a	n/a	n/a
320.0	0.871829383992008	12	late	dm_task	0.871829383992008	n/a	21.0	-1.0	n/a
320.871829383992	0.75	12	late	dm_task_post	n/a	n/a	n/a	n/a	n/a
325.5	0.5	12	late	em_task_pre	n/a	n/a	n/a	n/a	n/a
326.0	1.8416398559930016	12	late	em_task	n/a	n/a	n/a	n/a	137.380419331044
327.841639855993	0.75	12	late	em_task_post	n/a	n/a	n/a	n/a	n/a
