onset	duration	trial	trial_type	event_type	response_time	value_stimulus	value_reference	response_decision	response_estimation
0.0	1.5	1	late	stimulus	n/a	67.5	n/a	n/a	n/a
11.5	0.5	1	late	dm_task_pre	n/a	n/a	n/a	n/a	n/a
12.0	0.759329492997495	1	late	dm_task	0.759329492997495	n/a	-4.0	1.0	n/a
12.759329492997495	0.75	1	late	dm_task_post	n/a	n/a	n/a	n/a	n/a
17.5	0.5	1	late	em_task_pre	n/a	n/a	n/a	n/a	n/a
18.0	3.647935200991899	1	late	em_task	n/a	n/a	n/a	n/a	70.9166193645007
21.6479352009919	0.75	1	late	em_task_post	n/a	n/a	n/a	n/a	n/a
28.0	1.5	2	early	stimulus	n/a	0.0	n/a	n/a	n/a
33.5	0.5	2	early	dm_task_pre	n/a	n/a	n/a	n/a	n/a
34.0	0.750860668995301	2	early	dm_task	0.750860668995301	n/a	21.0	-1.0	n/a
34.7508606689953	0.75	2	early	dm_task_post	n/a	n/a	n/a	n/a	n/a
45.5	0.5	2	early	em_task_pre	n/a	n/a	n/a	n/a	n/a
46.0	2.3896261169866015	2	early	em_task	n/a	n/a	n/a	n/a	14.1330401747033
48.389626116986605	0.75	2	early	em_task_post	n/a	n/a	n/a	n/a	n/a
56.0	1.5	3	late	stimulus	n/a	30.0	n/a	n/a	n/a
67.5	0.5	3	late	dm_task_pre	n/a	n/a	n/a	n/a	n/a
68.0	0.812514166987967	3	late	dm_task	0.812514166987967	n/a	-21.0	1.0	n/a
68.81251416698797	0.75	3	late	dm_task_post	n/a	n/a	n/a	n/a	n/a
73.5	0.5	3	late	em_task_pre	n/a	n/a	n/a	n/a	n/a
74.0	2.8820874409867017	3	late	em_task	n/a	n/a	n/a	n/a	14.5618071309505
76.88208744098671	0.75	3	late	em_task_post	n/a	n/a	n/a	n/a	n/a
84.0	1.5	4	early	stimulus	n/a	45.0	n/a	n/a	n/a
89.5	0.5	4	early	dm_task_pre	n/a	n/a	n/a	n/a	n/a
90.0	0.668154513987247	4	early	dm_task	0.668154513987247	n/a	21.0	-1.0	n/a
90.66815451398725	0.75	4	early	dm_task_post	n/a	n/a	n/a	n/a	n/a
101.5	0.5	4	early	em_task_pre	n/a	n/a	n/a	n/a	n/a
102.0	2.858804608986201	4	early	em_task	n/a	n/a	n/a	n/a	54.6571996163883
104.8588046089862	0.75	4	early	em_task_post	n/a	n/a	n/a	n/a	n/a
112.0	1.5	5	early	stimulus	n/a	135.0	n/a	n/a	n/a
117.5	0.5	5	early	dm_task_pre	n/a	n/a	n/a	n/a	n/a
118.0	0.578247515994008	5	early	dm_task	0.578247515994008	n/a	4.0	-1.0	n/a
118.57824751599401	0.75	5	early	dm_task_post	n/a	n/a	n/a	n/a	n/a
129.5	0.5	5	early	em_task_pre	n/a	n/a	n/a	n/a	n/a
130.0	2.0660973409977004	5	early	em_task	n/a	n/a	n/a	n/a	130.279787400674
132.06609734099771	0.75	5	early	em_task_post	n/a	n/a	n/a	n/a	n/a
140.0	1.5	6	late	stimulus	n/a	82.5	n/a	n/a	n/a
151.5	0.5	6	late	dm_task_pre	n/a	n/a	n/a	n/a	n/a
152.0	0.638429008991807	6	late	dm_task	0.638429008991807	n/a	4.0	1.0	n/a
152.6384290089918	0.75	6	late	dm_task_post	n/a	n/a	n/a	n/a	n/a
157.5	0.5	6	late	em_task_pre	n/a	n/a	n/a	n/a	n/a
158.0	2.4929795629869	6	late	em_task	n/a	n/a	n/a	n/a	105.979500788931
160.4929795629869	0.75	6	late	em_task_post	n/a	n/a	n/a	n/a	n/a
168.0	1.5	7	early	stimulus	n/a	172.5	n/a	n/a	n/a
173.5	0.5	7	early	dm_task_pre	n/a	n/a	n/a	n/a	n/a
174.0	0.76310294198629	7	early	dm_task	0.76310294198629	n/a	0.0	1.0	n/a
174.7631029419863	0.75	7	early	dm_task_post	n/a	n/a	n/a	n/a	n/a
185.5	0.5	7	early	em_task_pre	n/a	n/a	n/a	n/a	n/a
186.0	2.8690972339973015	7	early	em_task	n/a	n/a	n/a	n/a	16.033549302929
188.8690972339973	0.75	7	early	em_task_post	n/a	n/a	n/a	n/a	n/a
196.0	1.5	8	early	stimulus	n/a	15.0	n/a	n/a	n/a
201.5	0.5	8	early	dm_task_pre	n/a	n/a	n/a	n/a	n/a
202.0	1.5	8	early	dm_task	1.83986500799074	n/a	4.0	-1.0	n/a
203.5	0.75	8	early	dm_task_post	n/a	n/a	n/a	n/a	n/a
213.5	0.5	8	early	em_task_pre	n/a	n/a	n/a	n/a	n/a
214.0	2.1274710399884	8	early	em_task	n/a	n/a	n/a	n/a	12.3850786480979
216.1274710399884	0.75	8	early	em_task_post	n/a	n/a	n/a	n/a	n/a
224.0	1.5	9	late	stimulus	n/a	127.5	n/a	n/a	n/a
235.5	0.5	9	late	dm_task_pre	n/a	n/a	n/a	n/a	n/a
236.0	1.21714912599418	9	late	dm_task	1.21714912599418	n/a	0.0	-1.0	n/a
237.21714912599418	0.75	9	late	dm_task_post	n/a	n/a	n/a	n/a	n/a
241.5	0.5	9	late	em_task_pre	n/a	n/a	n/a	n/a	n/a
242.0	1.8368686119939	9	late	em_task	n/a	n/a	n/a	n/a	116.697201523039
243.8368686119939	0.75	9	late	em_task_post	n/a	n/a	n/a	n/a	n/a
252.0	1.5	10	late	stimulus	n/a	90.0	n/a	n/a	n/a
263.5	0.5	10	late	dm_task_pre	n/a	n/a	n/a	n/a	n/a
264.0	0.560351159991114	10	late	dm_task	0.560351159991114	n/a	-4.0	1.0	n/a
264.5603511599911	0.75	10	late	dm_task_post	n/a	n/a	n/a	n/a	n/a
269.5	0.5	10	late	em_task_pre	n/a	n/a	n/a	n/a	n/a
270.0	2.0954065379918987	10	late	em_task	n/a	n/a	n/a	n/a	101.903809513414
272.0954065379919	0.75	10	late	em_task_post	n/a	n/a	n/a	n/a	n/a
280.0	1.5	11	late	stimulus	n/a	105.0	n/a	n/a	n/a
291.5	0.5	11	late	dm_task_pre	n/a	n/a	n/a	n/a	n/a
292.0	1.05235847798758	11	late	dm_task	1.05235847798758	n/a	0.0	1.0	n/a
293.0523584779876	0.75	11	late	dm_task_post	n/a	n/a	n/a	n/a	n/a
297.5	0.5	11	late	em_task_pre	n/a	n/a	n/a	n/a	n/a
298.0	2.155693223991001	11	late	em_task	n/a	n/a	n/a	n/a	107.284682445823
300.155693223991	0.75	11	late	em_task_post	n/a	n/a	n/a	n/a	n/a
308.0	1.5	12	early	stimulus	n/a	7.5	n/a	n/a	n/a
313.5	0.5	12	early	dm_task_pre	n/a	n/a	n/a	n/a	n/a
314.0	0.676650702996994	12	early	dm_task	0.676650702996994	n/a	21.0	-1.0	n/a
314.676650702997	0.75	12	early	dm_task_post	n/a	n/a	n/a	n/a	n/a
325.5	0.5	12	early	em_task_pre	n/a	n/a	n/a	n/a	n/a
326.0	4.115018602999001	12	early	em_task	n/a	n/a	n/a	n/a	19.958544331044
330.115018602999	0.75	12	early	em_task_post	n/a	n/a	n/a	n/a	n/a
