onset	duration	trial	trial_type	event_type	response_time	value_stimulus	value_reference	response_decision	response_estimation
0.0	1.5	1	early	stimulus	n/a	165.0	n/a	n/a	n/a
5.5	0.5	1	early	dm_task_pre	n/a	n/a	n/a	n/a	n/a
6.0	1.5	1	early	dm_task	n/a	n/a	21.0	n/a	n/a
7.5	0.75	1	early	dm_task_post	n/a	n/a	n/a	n/a	n/a
17.5	0.5	1	early	em_task_pre	n/a	n/a	n/a	n/a	n/a
18.0	2.458775925915699	1	early	em_task	n/a	n/a	n/a	n/a	162.957498484997
20.4587759259157	0.75	1	early	em_task_post	n/a	n/a	n/a	n/a	n/a
28.0	1.5	2	early	stimulus	n/a	45.0	n/a	n/a	n/a
33.5	0.5	2	early	dm_task_pre	n/a	n/a	n/a	n/a	n/a
34.0	0.637607455719262	2	early	dm_task	0.637607455719262	n/a	21.0	1.0	n/a
34.63760745571926	0.75	2	early	dm_task_post	n/a	n/a	n/a	n/a	n/a
45.5	0.5	2	early	em_task_pre	n/a	n/a	n/a	n/a	n/a
46.0	3.3648281027562987	2	early	em_task	n/a	n/a	n/a	n/a	48.5429265660939
49.3648281027563	0.75	2	early	em_task_post	n/a	n/a	n/a	n/a	n/a
56.0	1.5	3	early	stimulus	n/a	22.5	n/a	n/a	n/a
61.5	0.5	3	early	dm_task_pre	n/a	n/a	n/a	n/a	n/a
62.0	0.676791106816381	3	early	dm_task	0.676791106816381	n/a	-21.0	1.0	n/a
62.67679110681638	0.75	3	early	dm_task_post	n/a	n/a	n/a	n/a	n/a
73.5	0.5	3	early	em_task_pre	n/a	n/a	n/a	n/a	n/a
74.0	3.0222329436800983	3	early	em_task	n/a	n/a	n/a	n/a	20.8430861956362
77.0222329436801	0.75	3	early	em_task_post	n/a	n/a	n/a	n/a	n/a
84.0	1.5	4	late	stimulus	n/a	0.0	n/a	n/a	n/a
95.5	0.5	4	late	dm_task_pre	n/a	n/a	n/a	n/a	n/a
96.0	1.04683536989614	4	late	dm_task	1.04683536989614	n/a	-21.0	1.0	n/a
97.04683536989614	0.75	4	late	dm_task_post	n/a	n/a	n/a	n/a	n/a
101.5	0.5	4	late	em_task_pre	n/a	n/a	n/a	n/a	n/a
102.0	1.6961012878455008	4	late	em_task	n/a	n/a	n/a	n/a	179.355061832486
103.6961012878455	0.75	4	late	em_task_post	n/a	n/a	n/a	n/a	n/a
112.0	1.5	5	late	stimulus	n/a	97.5	n/a	n/a	n/a
123.5	0.5	5	late	dm_task_pre	n/a	n/a	n/a	n/a	n/a
124.0	0.654398038983345	5	late	dm_task	0.654398038983345	n/a	-4.0	1.0	n/a
124.65439803898335	0.75	5	late	dm_task_post	n/a	n/a	n/a	n/a	n/a
129.5	0.5	5	late	em_task_pre	n/a	n/a	n/a	n/a	n/a
130.0	1.8847275697625996	5	late	em_task	n/a	n/a	n/a	n/a	99.0500650882366
131.8847275697626	0.75	5	late	em_task_post	n/a	n/a	n/a	n/a	n/a
140.0	1.5	6	late	stimulus	n/a	112.5	n/a	n/a	n/a
151.5	0.5	6	late	dm_task_pre	n/a	n/a	n/a	n/a	n/a
152.0	0.676633303985	6	late	dm_task	0.676633303985	n/a	-21.0	1.0	n/a
152.676633303985	0.75	6	late	dm_task_post	n/a	n/a	n/a	n/a	n/a
157.5	0.5	6	late	em_task_pre	n/a	n/a	n/a	n/a	n/a
158.0	2.4910986470058987	6	late	em_task	n/a	n/a	n/a	n/a	109.0430452278
160.4910986470059	0.75	6	late	em_task_post	n/a	n/a	n/a	n/a	n/a
168.0	1.5	7	early	stimulus	n/a	7.5	n/a	n/a	n/a
173.5	0.5	7	early	dm_task_pre	n/a	n/a	n/a	n/a	n/a
174.0	0.85347304167226	7	early	dm_task	0.85347304167226	n/a	-4.0	1.0	n/a
174.85347304167226	0.75	7	early	dm_task_post	n/a	n/a	n/a	n/a	n/a
185.5	0.5	7	early	em_task_pre	n/a	n/a	n/a	n/a	n/a
186.0	3.2649147878401017	7	early	em_task	n/a	n/a	n/a	n/a	16.1611905833813
189.2649147878401	0.75	7	early	em_task_post	n/a	n/a	n/a	n/a	n/a
196.0	1.5	8	early	stimulus	n/a	105.0	n/a	n/a	n/a
201.5	0.5	8	early	dm_task_pre	n/a	n/a	n/a	n/a	n/a
202.0	0.543230320792645	8	early	dm_task	0.543230320792645	n/a	21.0	1.0	n/a
202.54323032079265	0.75	8	early	dm_task_post	n/a	n/a	n/a	n/a	n/a
213.5	0.5	8	early	em_task_pre	n/a	n/a	n/a	n/a	n/a
214.0	2.8717527817935	8	early	em_task	n/a	n/a	n/a	n/a	103.71405572232
216.8717527817935	0.75	8	early	em_task_post	n/a	n/a	n/a	n/a	n/a
224.0	1.5	9	late	stimulus	n/a	150.0	n/a	n/a	n/a
235.5	0.5	9	late	dm_task_pre	n/a	n/a	n/a	n/a	n/a
236.0	1.27969234064221	9	late	dm_task	1.27969234064221	n/a	4.0	-1.0	n/a
237.2796923406422	0.75	9	late	dm_task_post	n/a	n/a	n/a	n/a	n/a
241.5	0.5	9	late	em_task_pre	n/a	n/a	n/a	n/a	n/a
242.0	3.543745734728901	9	late	em_task	n/a	n/a	n/a	n/a	132.978059009296
245.5437457347289	0.75	9	late	em_task_post	n/a	n/a	n/a	n/a	n/a
252.0	1.5	10	early	stimulus	n/a	157.5	n/a	n/a	n/a
257.5	0.5	10	early	dm_task_pre	n/a	n/a	n/a	n/a	n/a
258.0	1.37168972287327	10	early	dm_task	1.37168972287327	n/a	4.0	-1.0	n/a
259.37168972287327	0.75	10	early	dm_task_post	n/a	n/a	n/a	n/a	n/a
269.5	0.5	10	early	em_task_pre	n/a	n/a	n/a	n/a	n/a
270.0	3.7496408098377003	10	early	em_task	n/a	n/a	n/a	n/a	151.893875563936
273.74964080983773	0.75	10	early	em_task_post	n/a	n/a	n/a	n/a	n/a
280.0	1.5	11	early	stimulus	n/a	127.5	n/a	n/a	n/a
285.5	0.5	11	early	dm_task_pre	n/a	n/a	n/a	n/a	n/a
286.0	0.92888015974313	11	early	dm_task	0.92888015974313	n/a	21.0	-1.0	n/a
286.92888015974313	0.75	11	early	dm_task_post	n/a	n/a	n/a	n/a	n/a
297.5	0.5	11	early	em_task_pre	n/a	n/a	n/a	n/a	n/a
298.0	3.3070429130456986	11	early	em_task	n/a	n/a	n/a	n/a	130.39913986906
301.3070429130457	0.75	11	early	em_task_post	n/a	n/a	n/a	n/a	n/a
308.0	1.5	12	early	stimulus	n/a	172.5	n/a	n/a	n/a
313.5	0.5	12	early	dm_task_pre	n/a	n/a	n/a	n/a	n/a
314.0	0.668772916775197	12	early	dm_task	0.668772916775197	n/a	4.0	-1.0	n/a
314.6687729167752	0.75	12	early	dm_task_post	n/a	n/a	n/a	n/a	n/a
325.5	0.5	12	early	em_task_pre	n/a	n/a	n/a	n/a	n/a
326.0	2.9636703557334982	12	early	em_task	n/a	n/a	n/a	n/a	156.234264378146
328.9636703557335	0.75	12	early	em_task_post	n/a	n/a	n/a	n/a	n/a
