onset	duration	trial	trial_type	event_type	response_time	value_stimulus	value_reference	response_decision	response_estimation
0.0	1.5	1	early	stimulus	n/a	90.0	n/a	n/a	n/a
5.5	0.5	1	early	dm_task_pre	n/a	n/a	n/a	n/a	n/a
6.0	0.742058554955292	1	early	dm_task	0.742058554955292	n/a	21.0	-1.0	n/a
6.7420585549552925	0.75	1	early	dm_task_post	n/a	n/a	n/a	n/a	n/a
17.5	0.5	1	early	em_task_pre	n/a	n/a	n/a	n/a	n/a
18.0	2.8468169019906995	1	early	em_task	n/a	n/a	n/a	n/a	92.1872070736332
20.8468169019907	0.75	1	early	em_task_post	n/a	n/a	n/a	n/a	n/a
28.0	1.5	2	early	stimulus	n/a	37.5	n/a	n/a	n/a
33.5	0.5	2	early	dm_task_pre	n/a	n/a	n/a	n/a	n/a
34.0	0.766644895949867	2	early	dm_task	0.766644895949867	n/a	4.0	-1.0	n/a
34.76664489594987	0.75	2	early	dm_task_post	n/a	n/a	n/a	n/a	n/a
45.5	0.5	2	early	em_task_pre	n/a	n/a	n/a	n/a	n/a
46.0	2.1870851449785	2	early	em_task	n/a	n/a	n/a	n/a	35.3267519609216
48.1870851449785	0.75	2	early	em_task_post	n/a	n/a	n/a	n/a	n/a
56.0	1.5	3	early	stimulus	n/a	75.0	n/a	n/a	n/a
61.5	0.5	3	early	dm_task_pre	n/a	n/a	n/a	n/a	n/a
62.0	0.775041960994713	3	early	dm_task	0.775041960994713	n/a	4.0	-1.0	n/a
62.77504196099471	0.75	3	early	dm_task_post	n/a	n/a	n/a	n/a	n/a
73.5	0.5	3	early	em_task_pre	n/a	n/a	n/a	n/a	n/a
74.0	2.8632119189715013	3	early	em_task	n/a	n/a	n/a	n/a	74.7571956204332
76.8632119189715	0.75	3	early	em_task_post	n/a	n/a	n/a	n/a	n/a
84.0	1.5	4	early	stimulus	n/a	82.5	n/a	n/a	n/a
89.5	0.5	4	early	dm_task_pre	n/a	n/a	n/a	n/a	n/a
90.0	0.718548340955749	4	early	dm_task	0.718548340955749	n/a	0.0	-1.0	n/a
90.71854834095575	0.75	4	early	dm_task_post	n/a	n/a	n/a	n/a	n/a
101.5	0.5	4	early	em_task_pre	n/a	n/a	n/a	n/a	n/a
102.0	2.6907093329936984	4	early	em_task	n/a	n/a	n/a	n/a	68.4938067102826
104.69070933299369	0.75	4	early	em_task_post	n/a	n/a	n/a	n/a	n/a
112.0	1.5	5	late	stimulus	n/a	52.5	n/a	n/a	n/a
123.5	0.5	5	late	dm_task_pre	n/a	n/a	n/a	n/a	n/a
124.0	0.746401410957333	5	late	dm_task	0.746401410957333	n/a	0.0	-1.0	n/a
124.74640141095733	0.75	5	late	dm_task_post	n/a	n/a	n/a	n/a	n/a
129.5	0.5	5	late	em_task_pre	n/a	n/a	n/a	n/a	n/a
130.0	2.5993956299498997	5	late	em_task	n/a	n/a	n/a	n/a	44.8809910566063
132.5993956299499	0.75	5	late	em_task_post	n/a	n/a	n/a	n/a	n/a
140.0	1.5	6	late	stimulus	n/a	172.5	n/a	n/a	n/a
151.5	0.5	6	late	dm_task_pre	n/a	n/a	n/a	n/a	n/a
152.0	0.588326148979831	6	late	dm_task	0.588326148979831	n/a	0.0	-1.0	n/a
152.58832614897983	0.75	6	late	dm_task_post	n/a	n/a	n/a	n/a	n/a
157.5	0.5	6	late	em_task_pre	n/a	n/a	n/a	n/a	n/a
158.0	3.1250811379869	6	late	em_task	n/a	n/a	n/a	n/a	162.054043175846
161.1250811379869	0.75	6	late	em_task_post	n/a	n/a	n/a	n/a	n/a
168.0	1.5	7	late	stimulus	n/a	45.0	n/a	n/a	n/a
179.5	0.5	7	late	dm_task_pre	n/a	n/a	n/a	n/a	n/a
180.0	0.780448901990894	7	late	dm_task	0.780448901990894	n/a	21.0	-1.0	n/a
180.7804489019909	0.75	7	late	dm_task_post	n/a	n/a	n/a	n/a	n/a
185.5	0.5	7	late	em_task_pre	n/a	n/a	n/a	n/a	n/a
186.0	2.349843289994201	7	late	em_task	n/a	n/a	n/a	n/a	49.6593934627341
188.3498432899942	0.75	7	late	em_task_post	n/a	n/a	n/a	n/a	n/a
196.0	1.5	8	early	stimulus	n/a	60.0	n/a	n/a	n/a
201.5	0.5	8	early	dm_task_pre	n/a	n/a	n/a	n/a	n/a
202.0	1.33846639399417	8	early	dm_task	1.33846639399417	n/a	0.0	-1.0	n/a
203.33846639399417	0.75	8	early	dm_task_post	n/a	n/a	n/a	n/a	n/a
213.5	0.5	8	early	em_task_pre	n/a	n/a	n/a	n/a	n/a
214.0	3.5274564439895997	8	early	em_task	n/a	n/a	n/a	n/a	54.9871304890209
217.5274564439896	0.75	8	early	em_task_post	n/a	n/a	n/a	n/a	n/a
224.0	1.5	9	early	stimulus	n/a	112.5	n/a	n/a	n/a
229.5	0.5	9	early	dm_task_pre	n/a	n/a	n/a	n/a	n/a
230.0	1.5	9	early	dm_task	1.54877557297004	n/a	4.0	1.0	n/a
231.5	0.75	9	early	dm_task_post	n/a	n/a	n/a	n/a	n/a
241.5	0.5	9	early	em_task_pre	n/a	n/a	n/a	n/a	n/a
242.0	2.4357619479997012	9	early	em_task	n/a	n/a	n/a	n/a	122.054028899149
244.4357619479997	0.75	9	early	em_task_post	n/a	n/a	n/a	n/a	n/a
252.0	1.5	10	early	stimulus	n/a	105.0	n/a	n/a	n/a
257.5	0.5	10	early	dm_task_pre	n/a	n/a	n/a	n/a	n/a
258.0	0.957097612961661	10	early	dm_task	0.957097612961661	n/a	0.0	1.0	n/a
258.95709761296166	0.75	10	early	dm_task_post	n/a	n/a	n/a	n/a	n/a
269.5	0.5	10	early	em_task_pre	n/a	n/a	n/a	n/a	n/a
270.0	3.2953490439685993	10	early	em_task	n/a	n/a	n/a	n/a	114.029125191618
273.2953490439686	0.75	10	early	em_task_post	n/a	n/a	n/a	n/a	n/a
280.0	1.5	11	late	stimulus	n/a	67.5	n/a	n/a	n/a
291.5	0.5	11	late	dm_task_pre	n/a	n/a	n/a	n/a	n/a
292.0	0.68399958597729	11	late	dm_task	0.68399958597729	n/a	4.0	-1.0	n/a
292.6839995859773	0.75	11	late	dm_task_post	n/a	n/a	n/a	n/a	n/a
297.5	0.5	11	late	em_task_pre	n/a	n/a	n/a	n/a	n/a
298.0	2.3203704899643007	11	late	em_task	n/a	n/a	n/a	n/a	60.6122609363573
300.3203704899643	0.75	11	late	em_task_post	n/a	n/a	n/a	n/a	n/a
308.0	1.5	12	early	stimulus	n/a	135.0	n/a	n/a	n/a
313.5	0.5	12	early	dm_task_pre	n/a	n/a	n/a	n/a	n/a
314.0	1.5	12	early	dm_task	1.55743696395075	n/a	4.0	-1.0	n/a
315.5	0.75	12	early	dm_task_post	n/a	n/a	n/a	n/a	n/a
325.5	0.5	12	early	em_task_pre	n/a	n/a	n/a	n/a	n/a
326.0	2.096816777950199	12	early	em_task	n/a	n/a	n/a	n/a	145.441023541031
328.0968167779502	0.75	12	early	em_task_post	n/a	n/a	n/a	n/a	n/a
