onset	duration	trial	trial_type	event_type	response_time	value_stimulus	value_reference	response_decision	response_estimation
0.0	1.5	1	early	stimulus	n/a	30.0	n/a	n/a	n/a
5.5	0.5	1	early	dm_task_pre	n/a	n/a	n/a	n/a	n/a
6.0	0.684396468801424	1	early	dm_task	0.684396468801424	n/a	-21.0	1.0	n/a
6.684396468801424	0.75	1	early	dm_task_post	n/a	n/a	n/a	n/a	n/a
17.5	0.5	1	early	em_task_pre	n/a	n/a	n/a	n/a	n/a
18.0	3.6791705018841014	1	early	em_task	n/a	n/a	n/a	n/a	8.51695695279166
21.6791705018841	0.75	1	early	em_task_post	n/a	n/a	n/a	n/a	n/a
28.0	1.5	2	early	stimulus	n/a	157.5	n/a	n/a	n/a
33.5	0.5	2	early	dm_task_pre	n/a	n/a	n/a	n/a	n/a
34.0	0.572475427994505	2	early	dm_task	0.572475427994505	n/a	-21.0	1.0	n/a
34.572475427994505	0.75	2	early	dm_task_post	n/a	n/a	n/a	n/a	n/a
45.5	0.5	2	early	em_task_pre	n/a	n/a	n/a	n/a	n/a
46.0	2.9862045249901996	2	early	em_task	n/a	n/a	n/a	n/a	152.972405967983
48.9862045249902	0.75	2	early	em_task_post	n/a	n/a	n/a	n/a	n/a
56.0	1.5	3	late	stimulus	n/a	97.5	n/a	n/a	n/a
67.5	0.5	3	late	dm_task_pre	n/a	n/a	n/a	n/a	n/a
68.0	0.828875095816329	3	late	dm_task	0.828875095816329	n/a	4.0	-1.0	n/a
68.82887509581633	0.75	3	late	dm_task_post	n/a	n/a	n/a	n/a	n/a
73.5	0.5	3	late	em_task_pre	n/a	n/a	n/a	n/a	n/a
74.0	2.2901523928157985	3	late	em_task	n/a	n/a	n/a	n/a	100.022240398749
76.2901523928158	0.75	3	late	em_task_post	n/a	n/a	n/a	n/a	n/a
84.0	1.5	4	early	stimulus	n/a	150.0	n/a	n/a	n/a
89.5	0.5	4	early	dm_task_pre	n/a	n/a	n/a	n/a	n/a
90.0	0.636604202911258	4	early	dm_task	0.636604202911258	n/a	21.0	-1.0	n/a
90.63660420291126	0.75	4	early	dm_task_post	n/a	n/a	n/a	n/a	n/a
101.5	0.5	4	early	em_task_pre	n/a	n/a	n/a	n/a	n/a
102.0	3.6819555999244997	4	early	em_task	n/a	n/a	n/a	n/a	154.493750725848
105.68195559992449	0.75	4	early	em_task_post	n/a	n/a	n/a	n/a	n/a
112.0	1.5	5	early	stimulus	n/a	135.0	n/a	n/a	n/a
117.5	0.5	5	early	dm_task_pre	n/a	n/a	n/a	n/a	n/a
118.0	0.559811980929226	5	early	dm_task	0.559811980929226	n/a	21.0	-1.0	n/a
118.55981198092923	0.75	5	early	dm_task_post	n/a	n/a	n/a	n/a	n/a
129.5	0.5	5	early	em_task_pre	n/a	n/a	n/a	n/a	n/a
130.0	2.8384909678716	5	early	em_task	n/a	n/a	n/a	n/a	158.584743518007
132.8384909678716	0.75	5	early	em_task_post	n/a	n/a	n/a	n/a	n/a
140.0	1.5	6	early	stimulus	n/a	112.5	n/a	n/a	n/a
145.5	0.5	6	early	dm_task_pre	n/a	n/a	n/a	n/a	n/a
146.0	0.76514067593962	6	early	dm_task	0.76514067593962	n/a	-4.0	1.0	n/a
146.76514067593962	0.75	6	early	dm_task_post	n/a	n/a	n/a	n/a	n/a
157.5	0.5	6	early	em_task_pre	n/a	n/a	n/a	n/a	n/a
158.0	3.2650042718742007	6	early	em_task	n/a	n/a	n/a	n/a	118.744023216548
161.2650042718742	0.75	6	early	em_task_post	n/a	n/a	n/a	n/a	n/a
168.0	1.5	7	late	stimulus	n/a	15.0	n/a	n/a	n/a
179.5	0.5	7	late	dm_task_pre	n/a	n/a	n/a	n/a	n/a
180.0	0.934308664873242	7	late	dm_task	0.934308664873242	n/a	4.0	1.0	n/a
180.93430866487324	0.75	7	late	dm_task_post	n/a	n/a	n/a	n/a	n/a
185.5	0.5	7	late	em_task_pre	n/a	n/a	n/a	n/a	n/a
186.0	3.9505056459457	7	late	em_task	n/a	n/a	n/a	n/a	10.9906351592054
189.9505056459457	0.75	7	late	em_task_post	n/a	n/a	n/a	n/a	n/a
196.0	1.5	8	early	stimulus	n/a	75.0	n/a	n/a	n/a
201.5	0.5	8	early	dm_task_pre	n/a	n/a	n/a	n/a	n/a
202.0	1.24492046283558	8	early	dm_task	1.24492046283558	n/a	-4.0	-1.0	n/a
203.24492046283558	0.75	8	early	dm_task_post	n/a	n/a	n/a	n/a	n/a
213.5	0.5	8	early	em_task_pre	n/a	n/a	n/a	n/a	n/a
214.0	1.3407583588268999	8	early	em_task	n/a	n/a	n/a	n/a	69.7184177013967
215.3407583588269	0.75	8	early	em_task_post	n/a	n/a	n/a	n/a	n/a
224.0	1.5	9	late	stimulus	n/a	7.5	n/a	n/a	n/a
235.5	0.5	9	late	dm_task_pre	n/a	n/a	n/a	n/a	n/a
236.0	0.732374585000798	9	late	dm_task	0.732374585000798	n/a	-21.0	1.0	n/a
236.7323745850008	0.75	9	late	dm_task_post	n/a	n/a	n/a	n/a	n/a
241.5	0.5	9	late	em_task_pre	n/a	n/a	n/a	n/a	n/a
242.0	3.061796187888799	9	late	em_task	n/a	n/a	n/a	n/a	6.22560312985344
245.0617961878888	0.75	9	late	em_task_post	n/a	n/a	n/a	n/a	n/a
252.0	1.5	10	late	stimulus	n/a	172.5	n/a	n/a	n/a
263.5	0.5	10	late	dm_task_pre	n/a	n/a	n/a	n/a	n/a
264.0	0.690569758880883	10	late	dm_task	0.690569758880883	n/a	21.0	-1.0	n/a
264.6905697588809	0.75	10	late	dm_task_post	n/a	n/a	n/a	n/a	n/a
269.5	0.5	10	late	em_task_pre	n/a	n/a	n/a	n/a	n/a
270.0	2.4527462047989985	10	late	em_task	n/a	n/a	n/a	n/a	171.555638808817
272.452746204799	0.75	10	late	em_task_post	n/a	n/a	n/a	n/a	n/a
280.0	1.5	11	early	stimulus	n/a	67.5	n/a	n/a	n/a
285.5	0.5	11	early	dm_task_pre	n/a	n/a	n/a	n/a	n/a
286.0	0.632444406859577	11	early	dm_task	0.632444406859577	n/a	-21.0	1.0	n/a
286.6324444068596	0.75	11	early	dm_task_post	n/a	n/a	n/a	n/a	n/a
297.5	0.5	11	early	em_task_pre	n/a	n/a	n/a	n/a	n/a
298.0	4.496367858955601	11	early	em_task	n/a	n/a	n/a	n/a	70.2924121847656
302.4963678589556	0.75	11	early	em_task_post	n/a	n/a	n/a	n/a	n/a
308.0	1.5	12	late	stimulus	n/a	142.5	n/a	n/a	n/a
319.5	0.5	12	late	dm_task_pre	n/a	n/a	n/a	n/a	n/a
320.0	1.5	12	late	dm_task	n/a	n/a	0.0	n/a	n/a
321.5	0.75	12	late	dm_task_post	n/a	n/a	n/a	n/a	n/a
325.5	0.5	12	late	em_task_pre	n/a	n/a	n/a	n/a	n/a
326.0	4.5	12	late	em_task	n/a	n/a	n/a	n/a	n/a
330.5	0.75	12	late	em_task_post	n/a	n/a	n/a	n/a	n/a
