onset	duration	trial	trial_type	event_type	response_time	value_stimulus	value_reference	response_decision	response_estimation
0.0	1.5	1	late	stimulus	n/a	127.5	n/a	n/a	n/a
11.5	0.5	1	late	dm_task_pre	n/a	n/a	n/a	n/a	n/a
12.0	0.753885324003932	1	late	dm_task	0.753885324003932	n/a	-21.0	1.0	n/a
12.753885324003932	0.75	1	late	dm_task_post	n/a	n/a	n/a	n/a	n/a
17.5	0.5	1	late	em_task_pre	n/a	n/a	n/a	n/a	n/a
18.0	3.4167087160022014	1	late	em_task	n/a	n/a	n/a	n/a	124.362194843155
21.4167087160022	0.75	1	late	em_task_post	n/a	n/a	n/a	n/a	n/a
28.0	1.5	2	early	stimulus	n/a	45.0	n/a	n/a	n/a
33.5	0.5	2	early	dm_task_pre	n/a	n/a	n/a	n/a	n/a
34.0	0.945109122003487	2	early	dm_task	0.945109122003487	n/a	0.0	-1.0	n/a
34.94510912200349	0.75	2	early	dm_task_post	n/a	n/a	n/a	n/a	n/a
45.5	0.5	2	early	em_task_pre	n/a	n/a	n/a	n/a	n/a
46.0	4.2879060060004015	2	early	em_task	n/a	n/a	n/a	n/a	47.322684741612
50.2879060060004	0.75	2	early	em_task_post	n/a	n/a	n/a	n/a	n/a
56.0	1.5	3	late	stimulus	n/a	37.5	n/a	n/a	n/a
67.5	0.5	3	late	dm_task_pre	n/a	n/a	n/a	n/a	n/a
68.0	0.632910157000879	3	late	dm_task	0.632910157000879	n/a	21.0	-1.0	n/a
68.63291015700088	0.75	3	late	dm_task_post	n/a	n/a	n/a	n/a	n/a
73.5	0.5	3	late	em_task_pre	n/a	n/a	n/a	n/a	n/a
74.0	3.1967338579997993	3	late	em_task	n/a	n/a	n/a	n/a	31.3713692755464
77.1967338579998	0.75	3	late	em_task_post	n/a	n/a	n/a	n/a	n/a
84.0	1.5	4	early	stimulus	n/a	15.0	n/a	n/a	n/a
89.5	0.5	4	early	dm_task_pre	n/a	n/a	n/a	n/a	n/a
90.0	0.708086876999005	4	early	dm_task	0.708086876999005	n/a	-21.0	1.0	n/a
90.708086876999	0.75	4	early	dm_task_post	n/a	n/a	n/a	n/a	n/a
101.5	0.5	4	early	em_task_pre	n/a	n/a	n/a	n/a	n/a
102.0	1.8541502110020005	4	early	em_task	n/a	n/a	n/a	n/a	26.1524379598189
103.85415021100201	0.75	4	early	em_task_post	n/a	n/a	n/a	n/a	n/a
112.0	1.5	5	early	stimulus	n/a	67.5	n/a	n/a	n/a
117.5	0.5	5	early	dm_task_pre	n/a	n/a	n/a	n/a	n/a
118.0	0.815750246001699	5	early	dm_task	0.815750246001699	n/a	-21.0	1.0	n/a
118.8157502460017	0.75	5	early	dm_task_post	n/a	n/a	n/a	n/a	n/a
129.5	0.5	5	early	em_task_pre	n/a	n/a	n/a	n/a	n/a
130.0	2.759571487003999	5	early	em_task	n/a	n/a	n/a	n/a	65.2728043986245
132.759571487004	0.75	5	early	em_task_post	n/a	n/a	n/a	n/a	n/a
140.0	1.5	6	early	stimulus	n/a	90.0	n/a	n/a	n/a
145.5	0.5	6	early	dm_task_pre	n/a	n/a	n/a	n/a	n/a
146.0	0.621421078001731	6	early	dm_task	0.621421078001731	n/a	-21.0	1.0	n/a
146.62142107800173	0.75	6	early	dm_task_post	n/a	n/a	n/a	n/a	n/a
157.5	0.5	6	early	em_task_pre	n/a	n/a	n/a	n/a	n/a
158.0	3.1166214160038983	6	early	em_task	n/a	n/a	n/a	n/a	94.5554147517275
161.1166214160039	0.75	6	early	em_task_post	n/a	n/a	n/a	n/a	n/a
168.0	1.5	7	late	stimulus	n/a	7.5	n/a	n/a	n/a
179.5	0.5	7	late	dm_task_pre	n/a	n/a	n/a	n/a	n/a
180.0	1.42588326200348	7	late	dm_task	1.42588326200348	n/a	0.0	-1.0	n/a
181.42588326200348	0.75	7	late	dm_task_post	n/a	n/a	n/a	n/a	n/a
185.5	0.5	7	late	em_task_pre	n/a	n/a	n/a	n/a	n/a
186.0	3.8553515509992984	7	late	em_task	n/a	n/a	n/a	n/a	8.91399326475195
189.8553515509993	0.75	7	late	em_task_post	n/a	n/a	n/a	n/a	n/a
196.0	1.5	8	late	stimulus	n/a	30.0	n/a	n/a	n/a
207.5	0.5	8	late	dm_task_pre	n/a	n/a	n/a	n/a	n/a
208.0	0.631434633003664	8	late	dm_task	0.631434633003664	n/a	21.0	-1.0	n/a
208.63143463300366	0.75	8	late	dm_task_post	n/a	n/a	n/a	n/a	n/a
213.5	0.5	8	late	em_task_pre	n/a	n/a	n/a	n/a	n/a
214.0	4.0449044519992015	8	late	em_task	n/a	n/a	n/a	n/a	30.2497990475466
218.0449044519992	0.75	8	late	em_task_post	n/a	n/a	n/a	n/a	n/a
224.0	1.5	9	late	stimulus	n/a	135.0	n/a	n/a	n/a
235.5	0.5	9	late	dm_task_pre	n/a	n/a	n/a	n/a	n/a
236.0	0.971511055002338	9	late	dm_task	0.971511055002338	n/a	-4.0	1.0	n/a
236.97151105500234	0.75	9	late	dm_task_post	n/a	n/a	n/a	n/a	n/a
241.5	0.5	9	late	em_task_pre	n/a	n/a	n/a	n/a	n/a
242.0	3.4361150309995985	9	late	em_task	n/a	n/a	n/a	n/a	143.223332033755
245.4361150309996	0.75	9	late	em_task_post	n/a	n/a	n/a	n/a	n/a
252.0	1.5	10	late	stimulus	n/a	22.5	n/a	n/a	n/a
263.5	0.5	10	late	dm_task_pre	n/a	n/a	n/a	n/a	n/a
264.0	0.99513756899978	10	late	dm_task	0.99513756899978	n/a	-21.0	1.0	n/a
264.9951375689998	0.75	10	late	dm_task_post	n/a	n/a	n/a	n/a	n/a
269.5	0.5	10	late	em_task_pre	n/a	n/a	n/a	n/a	n/a
270.0	3.6252717210008996	10	late	em_task	n/a	n/a	n/a	n/a	28.5526055181025
273.6252717210009	0.75	10	late	em_task_post	n/a	n/a	n/a	n/a	n/a
280.0	1.5	11	late	stimulus	n/a	150.0	n/a	n/a	n/a
291.5	0.5	11	late	dm_task_pre	n/a	n/a	n/a	n/a	n/a
292.0	0.768596134999825	11	late	dm_task	0.768596134999825	n/a	4.0	-1.0	n/a
292.7685961349998	0.75	11	late	dm_task_post	n/a	n/a	n/a	n/a	n/a
297.5	0.5	11	late	em_task_pre	n/a	n/a	n/a	n/a	n/a
298.0	2.798158192003001	11	late	em_task	n/a	n/a	n/a	n/a	148.424170615429
300.79815819200303	0.75	11	late	em_task_post	n/a	n/a	n/a	n/a	n/a
308.0	1.5	12	late	stimulus	n/a	112.5	n/a	n/a	n/a
319.5	0.5	12	late	dm_task_pre	n/a	n/a	n/a	n/a	n/a
320.0	0.824303970999608	12	late	dm_task	0.824303970999608	n/a	4.0	1.0	n/a
320.8243039709996	0.75	12	late	dm_task_post	n/a	n/a	n/a	n/a	n/a
325.5	0.5	12	late	em_task_pre	n/a	n/a	n/a	n/a	n/a
326.0	3.4051911370043015	12	late	em_task	n/a	n/a	n/a	n/a	123.657543404737
329.4051911370043	0.75	12	late	em_task_post	n/a	n/a	n/a	n/a	n/a
