onset	duration	trial	trial_type	event_type	response_time	value_stimulus	value_reference	response_decision	response_estimation
0.0	1.5	1	early	stimulus	n/a	75.0	n/a	n/a	n/a
5.5	0.5	1	early	dm_task_pre	n/a	n/a	n/a	n/a	n/a
6.0	0.934418353999718	1	early	dm_task	0.934418353999718	n/a	-4.0	-1.0	n/a
6.9344183539997175	0.75	1	early	dm_task_post	n/a	n/a	n/a	n/a	n/a
17.5	0.5	1	early	em_task_pre	n/a	n/a	n/a	n/a	n/a
18.0	2.5134152759997015	1	early	em_task	n/a	n/a	n/a	n/a	70.2215698431551
20.5134152759997	0.75	1	early	em_task_post	n/a	n/a	n/a	n/a	n/a
28.0	1.5	2	early	stimulus	n/a	30.0	n/a	n/a	n/a
33.5	0.5	2	early	dm_task_pre	n/a	n/a	n/a	n/a	n/a
34.0	0.691362719999688	2	early	dm_task	0.691362719999688	n/a	-21.0	-1.0	n/a
34.69136271999969	0.75	2	early	dm_task_post	n/a	n/a	n/a	n/a	n/a
45.5	0.5	2	early	em_task_pre	n/a	n/a	n/a	n/a	n/a
46.0	3.387045458000099	2	early	em_task	n/a	n/a	n/a	n/a	18.494559741612
49.3870454580001	0.75	2	early	em_task_post	n/a	n/a	n/a	n/a	n/a
56.0	1.5	3	late	stimulus	n/a	142.5	n/a	n/a	n/a
67.5	0.5	3	late	dm_task_pre	n/a	n/a	n/a	n/a	n/a
68.0	0.795496617000026	3	late	dm_task	0.795496617000026	n/a	0.0	1.0	n/a
68.79549661700003	0.75	3	late	dm_task_post	n/a	n/a	n/a	n/a	n/a
73.5	0.5	3	late	em_task_pre	n/a	n/a	n/a	n/a	n/a
74.0	3.8426242779997004	3	late	em_task	n/a	n/a	n/a	n/a	158.636994275546
77.8426242779997	0.75	3	late	em_task_post	n/a	n/a	n/a	n/a	n/a
84.0	1.5	4	late	stimulus	n/a	120.0	n/a	n/a	n/a
95.5	0.5	4	late	dm_task_pre	n/a	n/a	n/a	n/a	n/a
96.0	0.684032899999693	4	late	dm_task	0.684032899999693	n/a	-4.0	-1.0	n/a
96.68403289999969	0.75	4	late	dm_task_post	n/a	n/a	n/a	n/a	n/a
101.5	0.5	4	late	em_task_pre	n/a	n/a	n/a	n/a	n/a
102.0	2.831320073999901	4	late	em_task	n/a	n/a	n/a	n/a	112.636812959819
104.8313200739999	0.75	4	late	em_task_post	n/a	n/a	n/a	n/a	n/a
112.0	1.5	5	early	stimulus	n/a	22.5	n/a	n/a	n/a
117.5	0.5	5	early	dm_task_pre	n/a	n/a	n/a	n/a	n/a
118.0	0.626514888999736	5	early	dm_task	0.626514888999736	n/a	21.0	-1.0	n/a
118.62651488899974	0.75	5	early	dm_task_post	n/a	n/a	n/a	n/a	n/a
129.5	0.5	5	early	em_task_pre	n/a	n/a	n/a	n/a	n/a
130.0	3.5880021009998018	5	early	em_task	n/a	n/a	n/a	n/a	16.0540543986245
133.5880021009998	0.75	5	early	em_task_post	n/a	n/a	n/a	n/a	n/a
140.0	1.5	6	late	stimulus	n/a	52.5	n/a	n/a	n/a
151.5	0.5	6	late	dm_task_pre	n/a	n/a	n/a	n/a	n/a
152.0	1.48015122900006	6	late	dm_task	1.48015122900006	n/a	21.0	-1.0	n/a
153.48015122900006	0.75	6	late	dm_task_post	n/a	n/a	n/a	n/a	n/a
157.5	0.5	6	late	em_task_pre	n/a	n/a	n/a	n/a	n/a
158.0	1.6127726919999006	6	late	em_task	n/a	n/a	n/a	n/a	53.7741647517275
159.6127726919999	0.75	6	late	em_task_post	n/a	n/a	n/a	n/a	n/a
168.0	1.5	7	early	stimulus	n/a	105.0	n/a	n/a	n/a
173.5	0.5	7	early	dm_task_pre	n/a	n/a	n/a	n/a	n/a
174.0	1.5	7	early	dm_task	1.50579236099975	n/a	0.0	1.0	n/a
175.5	0.75	7	early	dm_task_post	n/a	n/a	n/a	n/a	n/a
185.5	0.5	7	early	em_task_pre	n/a	n/a	n/a	n/a	n/a
186.0	1.9700318699997013	7	early	em_task	n/a	n/a	n/a	n/a	103.132743264752
187.9700318699997	0.75	7	early	em_task_post	n/a	n/a	n/a	n/a	n/a
196.0	1.5	8	late	stimulus	n/a	7.5	n/a	n/a	n/a
207.5	0.5	8	late	dm_task_pre	n/a	n/a	n/a	n/a	n/a
208.0	1.22633086199994	8	late	dm_task	1.22633086199994	n/a	-21.0	1.0	n/a
209.22633086199994	0.75	8	late	dm_task_post	n/a	n/a	n/a	n/a	n/a
213.5	0.5	8	late	em_task_pre	n/a	n/a	n/a	n/a	n/a
214.0	4.2912780019997	8	late	em_task	n/a	n/a	n/a	n/a	7.74979904754657
218.2912780019997	0.75	8	late	em_task_post	n/a	n/a	n/a	n/a	n/a
224.0	1.5	9	late	stimulus	n/a	60.0	n/a	n/a	n/a
235.5	0.5	9	late	dm_task_pre	n/a	n/a	n/a	n/a	n/a
236.0	0.633495599000071	9	late	dm_task	0.633495599000071	n/a	4.0	-1.0	n/a
236.63349559900007	0.75	9	late	dm_task_post	n/a	n/a	n/a	n/a	n/a
241.5	0.5	9	late	em_task_pre	n/a	n/a	n/a	n/a	n/a
242.0	1.6305782720001005	9	late	em_task	n/a	n/a	n/a	n/a	59.5514570337553
243.6305782720001	0.75	9	late	em_task_post	n/a	n/a	n/a	n/a	n/a
252.0	1.5	10	early	stimulus	n/a	0.0	n/a	n/a	n/a
257.5	0.5	10	early	dm_task_pre	n/a	n/a	n/a	n/a	n/a
258.0	0.759221058000094	10	early	dm_task	0.759221058000094	n/a	4.0	-1.0	n/a
258.7592210580001	0.75	10	early	dm_task_post	n/a	n/a	n/a	n/a	n/a
269.5	0.5	10	early	em_task_pre	n/a	n/a	n/a	n/a	n/a
270.0	2.587348335000101	10	early	em_task	n/a	n/a	n/a	n/a	176.911980518103
272.5873483350001	0.75	10	early	em_task_post	n/a	n/a	n/a	n/a	n/a
280.0	1.5	11	late	stimulus	n/a	172.5	n/a	n/a	n/a
291.5	0.5	11	late	dm_task_pre	n/a	n/a	n/a	n/a	n/a
292.0	0.963122379999731	11	late	dm_task	0.963122379999731	n/a	21.0	-1.0	n/a
292.96312237999973	0.75	11	late	dm_task_post	n/a	n/a	n/a	n/a	n/a
297.5	0.5	11	late	em_task_pre	n/a	n/a	n/a	n/a	n/a
298.0	3.0778838880000983	11	late	em_task	n/a	n/a	n/a	n/a	167.408545615429
301.0778838880001	0.75	11	late	em_task_post	n/a	n/a	n/a	n/a	n/a
308.0	1.5	12	late	stimulus	n/a	15.0	n/a	n/a	n/a
319.5	0.5	12	late	dm_task_pre	n/a	n/a	n/a	n/a	n/a
320.0	1.33703752800011	12	late	dm_task	1.33703752800011	n/a	-4.0	-1.0	n/a
321.3370375280001	0.75	12	late	dm_task_post	n/a	n/a	n/a	n/a	n/a
325.5	0.5	12	late	em_task_pre	n/a	n/a	n/a	n/a	n/a
326.0	2.251371081999899	12	late	em_task	n/a	n/a	n/a	n/a	20.2981684047365
328.2513710819999	0.75	12	late	em_task_post	n/a	n/a	n/a	n/a	n/a
