onset	duration	trial	trial_type	event_type	response_time	value_stimulus	value_reference	response_decision	response_estimation
0.0	1.5	1	late	stimulus	n/a	157.5	n/a	n/a	n/a
11.5	0.5	1	late	dm_task_pre	n/a	n/a	n/a	n/a	n/a
12.0	0.458726487000149	1	late	dm_task	0.458726487000149	n/a	-21.0	1.0	n/a
12.458726487000149	0.75	1	late	dm_task_post	n/a	n/a	n/a	n/a	n/a
17.5	0.5	1	late	em_task_pre	n/a	n/a	n/a	n/a	n/a
18.0	3.2555396009998	1	late	em_task	n/a	n/a	n/a	n/a	152.258490541409
21.2555396009998	0.75	1	late	em_task_post	n/a	n/a	n/a	n/a	n/a
28.0	1.5	2	late	stimulus	n/a	150.0	n/a	n/a	n/a
39.5	0.5	2	late	dm_task_pre	n/a	n/a	n/a	n/a	n/a
40.0	0.565323755000009	2	late	dm_task	0.565323755000009	n/a	4.0	-1.0	n/a
40.56532375500001	0.75	2	late	dm_task_post	n/a	n/a	n/a	n/a	n/a
45.5	0.5	2	late	em_task_pre	n/a	n/a	n/a	n/a	n/a
46.0	2.710456665999999	2	late	em_task	n/a	n/a	n/a	n/a	147.47967614608
48.710456666	0.75	2	late	em_task_post	n/a	n/a	n/a	n/a	n/a
56.0	1.5	3	late	stimulus	n/a	112.5	n/a	n/a	n/a
67.5	0.5	3	late	dm_task_pre	n/a	n/a	n/a	n/a	n/a
68.0	0.520733181000196	3	late	dm_task	0.520733181000196	n/a	21.0	-1.0	n/a
68.5207331810002	0.75	3	late	dm_task_post	n/a	n/a	n/a	n/a	n/a
73.5	0.5	3	late	em_task_pre	n/a	n/a	n/a	n/a	n/a
74.0	3.1679409079997995	3	late	em_task	n/a	n/a	n/a	n/a	113.063079298608
77.16794090799979	0.75	3	late	em_task_post	n/a	n/a	n/a	n/a	n/a
84.0	1.5	4	early	stimulus	n/a	22.5	n/a	n/a	n/a
89.5	0.5	4	early	dm_task_pre	n/a	n/a	n/a	n/a	n/a
90.0	1.5	4	early	dm_task	1.54565879699976	n/a	0.0	-1.0	n/a
91.5	0.75	4	early	dm_task_post	n/a	n/a	n/a	n/a	n/a
101.5	0.5	4	early	em_task_pre	n/a	n/a	n/a	n/a	n/a
102.0	2.9570830379998014	4	early	em_task	n/a	n/a	n/a	n/a	30.9588773212557
104.95708303799981	0.75	4	early	em_task_post	n/a	n/a	n/a	n/a	n/a
112.0	1.5	5	early	stimulus	n/a	60.0	n/a	n/a	n/a
117.5	0.5	5	early	dm_task_pre	n/a	n/a	n/a	n/a	n/a
118.0	0.669325557999855	5	early	dm_task	0.669325557999855	n/a	-21.0	1.0	n/a
118.66932555799985	0.75	5	early	dm_task_post	n/a	n/a	n/a	n/a	n/a
129.5	0.5	5	early	em_task_pre	n/a	n/a	n/a	n/a	n/a
130.0	2.8975917859998006	5	early	em_task	n/a	n/a	n/a	n/a	54.6775407663098
132.8975917859998	0.75	5	early	em_task_post	n/a	n/a	n/a	n/a	n/a
140.0	1.5	6	late	stimulus	n/a	45.0	n/a	n/a	n/a
151.5	0.5	6	late	dm_task_pre	n/a	n/a	n/a	n/a	n/a
152.0	1.18943568299983	6	late	dm_task	1.18943568299983	n/a	21.0	-1.0	n/a
153.18943568299983	0.75	6	late	dm_task_post	n/a	n/a	n/a	n/a	n/a
157.5	0.5	6	late	em_task_pre	n/a	n/a	n/a	n/a	n/a
158.0	3.7042002459998002	6	late	em_task	n/a	n/a	n/a	n/a	48.5392915309388
161.7042002459998	0.75	6	late	em_task_post	n/a	n/a	n/a	n/a	n/a
168.0	1.5	7	late	stimulus	n/a	30.0	n/a	n/a	n/a
179.5	0.5	7	late	dm_task_pre	n/a	n/a	n/a	n/a	n/a
180.0	0.528667441999914	7	late	dm_task	0.528667441999914	n/a	-21.0	1.0	n/a
180.52866744199991	0.75	7	late	dm_task_post	n/a	n/a	n/a	n/a	n/a
185.5	0.5	7	late	em_task_pre	n/a	n/a	n/a	n/a	n/a
186.0	2.7598912980001984	7	late	em_task	n/a	n/a	n/a	n/a	20.0151148372966
188.75989129800018	0.75	7	late	em_task_post	n/a	n/a	n/a	n/a	n/a
196.0	1.5	8	late	stimulus	n/a	7.5	n/a	n/a	n/a
207.5	0.5	8	late	dm_task_pre	n/a	n/a	n/a	n/a	n/a
208.0	0.853189250000014	8	late	dm_task	0.853189250000014	n/a	-4.0	-1.0	n/a
208.85318925	0.75	8	late	dm_task_post	n/a	n/a	n/a	n/a	n/a
213.5	0.5	8	late	em_task_pre	n/a	n/a	n/a	n/a	n/a
214.0	2.1512251730000997	8	late	em_task	n/a	n/a	n/a	n/a	2.9737322495169
216.1512251730001	0.75	8	late	em_task_post	n/a	n/a	n/a	n/a	n/a
224.0	1.5	9	late	stimulus	n/a	52.5	n/a	n/a	n/a
235.5	0.5	9	late	dm_task_pre	n/a	n/a	n/a	n/a	n/a
236.0	0.577289870000186	9	late	dm_task	0.577289870000186	n/a	4.0	1.0	n/a
236.5772898700002	0.75	9	late	dm_task_post	n/a	n/a	n/a	n/a	n/a
241.5	0.5	9	late	em_task_pre	n/a	n/a	n/a	n/a	n/a
242.0	1.5254875099998984	9	late	em_task	n/a	n/a	n/a	n/a	104.375360655623
243.5254875099999	0.75	9	late	em_task_post	n/a	n/a	n/a	n/a	n/a
252.0	1.5	10	late	stimulus	n/a	90.0	n/a	n/a	n/a
263.5	0.5	10	late	dm_task_pre	n/a	n/a	n/a	n/a	n/a
264.0	0.733831840999756	10	late	dm_task	0.733831840999756	n/a	0.0	1.0	n/a
264.73383184099976	0.75	10	late	dm_task_post	n/a	n/a	n/a	n/a	n/a
269.5	0.5	10	late	em_task_pre	n/a	n/a	n/a	n/a	n/a
270.0	3.796830256999801	10	late	em_task	n/a	n/a	n/a	n/a	91.288347771055
273.7968302569998	0.75	10	late	em_task_post	n/a	n/a	n/a	n/a	n/a
280.0	1.5	11	early	stimulus	n/a	120.0	n/a	n/a	n/a
285.5	0.5	11	early	dm_task_pre	n/a	n/a	n/a	n/a	n/a
286.0	0.740745785999934	11	early	dm_task	0.740745785999934	n/a	-4.0	1.0	n/a
286.74074578599993	0.75	11	early	dm_task_post	n/a	n/a	n/a	n/a	n/a
297.5	0.5	11	early	em_task_pre	n/a	n/a	n/a	n/a	n/a
298.0	3.4030424170001012	11	early	em_task	n/a	n/a	n/a	n/a	115.005121278069
301.4030424170001	0.75	11	early	em_task_post	n/a	n/a	n/a	n/a	n/a
308.0	1.5	12	late	stimulus	n/a	97.5	n/a	n/a	n/a
319.5	0.5	12	late	dm_task_pre	n/a	n/a	n/a	n/a	n/a
320.0	0.645342308000181	12	late	dm_task	0.645342308000181	n/a	4.0	1.0	n/a
320.6453423080002	0.75	12	late	dm_task_post	n/a	n/a	n/a	n/a	n/a
325.5	0.5	12	late	em_task_pre	n/a	n/a	n/a	n/a	n/a
326.0	1.6122124309999997	12	late	em_task	n/a	n/a	n/a	n/a	111.61077877101
327.612212431	0.75	12	late	em_task_post	n/a	n/a	n/a	n/a	n/a
