onset	duration	trial	trial_type	event_type	response_time	value_stimulus	value_reference	response_decision	response_estimation
0.0	1.5	1	late	stimulus	n/a	127.5	n/a	n/a	n/a
11.5	0.5	1	late	dm_task_pre	n/a	n/a	n/a	n/a	n/a
12.0	0.536773536005057	1	late	dm_task	0.536773536005057	n/a	-21.0	1.0	n/a
12.536773536005057	0.75	1	late	dm_task_post	n/a	n/a	n/a	n/a	n/a
17.5	0.5	1	late	em_task_pre	n/a	n/a	n/a	n/a	n/a
18.0	2.7057251019869	1	late	em_task	n/a	n/a	n/a	n/a	133.472590981129
20.7057251019869	0.75	1	late	em_task_post	n/a	n/a	n/a	n/a	n/a
28.0	1.5	2	early	stimulus	n/a	142.5	n/a	n/a	n/a
33.5	0.5	2	early	dm_task_pre	n/a	n/a	n/a	n/a	n/a
34.0	1.01015354902484	2	early	dm_task	1.01015354902484	n/a	4.0	-1.0	n/a
35.01015354902484	0.75	2	early	dm_task_post	n/a	n/a	n/a	n/a	n/a
45.5	0.5	2	early	em_task_pre	n/a	n/a	n/a	n/a	n/a
46.0	2.5300886629847987	2	early	em_task	n/a	n/a	n/a	n/a	147.109372480836
48.530088662984795	0.75	2	early	em_task_post	n/a	n/a	n/a	n/a	n/a
56.0	1.5	3	late	stimulus	n/a	112.5	n/a	n/a	n/a
67.5	0.5	3	late	dm_task_pre	n/a	n/a	n/a	n/a	n/a
68.0	1.17007842101157	3	late	dm_task	1.17007842101157	n/a	-4.0	1.0	n/a
69.17007842101157	0.75	3	late	dm_task_post	n/a	n/a	n/a	n/a	n/a
73.5	0.5	3	late	em_task_pre	n/a	n/a	n/a	n/a	n/a
74.0	2.9226820010226007	3	late	em_task	n/a	n/a	n/a	n/a	113.063484692792
76.9226820010226	0.75	3	late	em_task_post	n/a	n/a	n/a	n/a	n/a
84.0	1.5	4	late	stimulus	n/a	15.0	n/a	n/a	n/a
95.5	0.5	4	late	dm_task_pre	n/a	n/a	n/a	n/a	n/a
96.0	0.646186714991927	4	late	dm_task	0.646186714991927	n/a	0.0	1.0	n/a
96.64618671499193	0.75	4	late	dm_task_post	n/a	n/a	n/a	n/a	n/a
101.5	0.5	4	late	em_task_pre	n/a	n/a	n/a	n/a	n/a
102.0	3.0829643370234017	4	late	em_task	n/a	n/a	n/a	n/a	24.6797355990872
105.0829643370234	0.75	4	late	em_task_post	n/a	n/a	n/a	n/a	n/a
112.0	1.5	5	early	stimulus	n/a	90.0	n/a	n/a	n/a
117.5	0.5	5	early	dm_task_pre	n/a	n/a	n/a	n/a	n/a
118.0	0.604531483026221	5	early	dm_task	0.604531483026221	n/a	21.0	-1.0	n/a
118.60453148302622	0.75	5	early	dm_task_post	n/a	n/a	n/a	n/a	n/a
129.5	0.5	5	early	em_task_pre	n/a	n/a	n/a	n/a	n/a
130.0	2.223218648985501	5	early	em_task	n/a	n/a	n/a	n/a	87.0387256686904
132.2232186489855	0.75	5	early	em_task_post	n/a	n/a	n/a	n/a	n/a
140.0	1.5	6	late	stimulus	n/a	37.5	n/a	n/a	n/a
151.5	0.5	6	late	dm_task_pre	n/a	n/a	n/a	n/a	n/a
152.0	0.698868174978998	6	late	dm_task	0.698868174978998	n/a	4.0	1.0	n/a
152.698868174979	0.75	6	late	dm_task_post	n/a	n/a	n/a	n/a	n/a
157.5	0.5	6	late	em_task_pre	n/a	n/a	n/a	n/a	n/a
158.0	3.4843594339908996	6	late	em_task	n/a	n/a	n/a	n/a	44.8148525459591
161.4843594339909	0.75	6	late	em_task_post	n/a	n/a	n/a	n/a	n/a
168.0	1.5	7	early	stimulus	n/a	30.0	n/a	n/a	n/a
173.5	0.5	7	early	dm_task_pre	n/a	n/a	n/a	n/a	n/a
174.0	0.720366432971787	7	early	dm_task	0.720366432971787	n/a	4.0	1.0	n/a
174.7203664329718	0.75	7	early	dm_task_post	n/a	n/a	n/a	n/a	n/a
185.5	0.5	7	early	em_task_pre	n/a	n/a	n/a	n/a	n/a
186.0	2.8601231009815997	7	early	em_task	n/a	n/a	n/a	n/a	41.4517929847866
188.8601231009816	0.75	7	early	em_task_post	n/a	n/a	n/a	n/a	n/a
196.0	1.5	8	late	stimulus	n/a	157.5	n/a	n/a	n/a
207.5	0.5	8	late	dm_task_pre	n/a	n/a	n/a	n/a	n/a
208.0	0.631496897025499	8	late	dm_task	0.631496897025499	n/a	4.0	-1.0	n/a
208.6314968970255	0.75	8	late	dm_task_post	n/a	n/a	n/a	n/a	n/a
213.5	0.5	8	late	em_task_pre	n/a	n/a	n/a	n/a	n/a
214.0	3.3518792079993993	8	late	em_task	n/a	n/a	n/a	n/a	153.683814455652
217.3518792079994	0.75	8	late	em_task_post	n/a	n/a	n/a	n/a	n/a
224.0	1.5	9	early	stimulus	n/a	22.5	n/a	n/a	n/a
229.5	0.5	9	early	dm_task_pre	n/a	n/a	n/a	n/a	n/a
230.0	0.906419891980477	9	early	dm_task	0.906419891980477	n/a	4.0	-1.0	n/a
230.90641989198048	0.75	9	early	dm_task_post	n/a	n/a	n/a	n/a	n/a
241.5	0.5	9	early	em_task_pre	n/a	n/a	n/a	n/a	n/a
242.0	2.7932242969982006	9	early	em_task	n/a	n/a	n/a	n/a	21.337838260457
244.7932242969982	0.75	9	early	em_task_post	n/a	n/a	n/a	n/a	n/a
252.0	1.5	10	late	stimulus	n/a	97.5	n/a	n/a	n/a
263.5	0.5	10	late	dm_task_pre	n/a	n/a	n/a	n/a	n/a
264.0	0.601837299007457	10	late	dm_task	0.601837299007457	n/a	-4.0	1.0	n/a
264.60183729900746	0.75	10	late	dm_task_post	n/a	n/a	n/a	n/a	n/a
269.5	0.5	10	late	em_task_pre	n/a	n/a	n/a	n/a	n/a
270.0	1.5188534890185004	10	late	em_task	n/a	n/a	n/a	n/a	103.60205072617
271.5188534890185	0.75	10	late	em_task_post	n/a	n/a	n/a	n/a	n/a
280.0	1.5	11	late	stimulus	n/a	165.0	n/a	n/a	n/a
291.5	0.5	11	late	dm_task_pre	n/a	n/a	n/a	n/a	n/a
292.0	0.5777701989864	11	late	dm_task	0.5777701989864	n/a	-21.0	1.0	n/a
292.5777701989864	0.75	11	late	dm_task_post	n/a	n/a	n/a	n/a	n/a
297.5	0.5	11	late	em_task_pre	n/a	n/a	n/a	n/a	n/a
298.0	2.879305677022799	11	late	em_task	n/a	n/a	n/a	n/a	161.88246232163
300.8793056770228	0.75	11	late	em_task_post	n/a	n/a	n/a	n/a	n/a
308.0	1.5	12	early	stimulus	n/a	172.5	n/a	n/a	n/a
313.5	0.5	12	early	dm_task_pre	n/a	n/a	n/a	n/a	n/a
314.0	0.615659669972956	12	early	dm_task	0.615659669972956	n/a	4.0	-1.0	n/a
314.61565966997296	0.75	12	early	dm_task_post	n/a	n/a	n/a	n/a	n/a
325.5	0.5	12	early	em_task_pre	n/a	n/a	n/a	n/a	n/a
326.0	2.5057938270037994	12	early	em_task	n/a	n/a	n/a	n/a	168.011265871642
328.5057938270038	0.75	12	early	em_task_post	n/a	n/a	n/a	n/a	n/a
