onset	duration	trial	trial_type	event_type	response_time	value_stimulus	value_reference	response_decision	response_estimation
0.0	1.5	1	early	stimulus	n/a	127.5	n/a	n/a	n/a
5.5	0.5	1	early	dm_task_pre	n/a	n/a	n/a	n/a	n/a
6.0	0.605721209998592	1	early	dm_task	0.605721209998592	n/a	-4.0	1.0	n/a
6.605721209998592	0.75	1	early	dm_task_post	n/a	n/a	n/a	n/a	n/a
17.5	0.5	1	early	em_task_pre	n/a	n/a	n/a	n/a	n/a
18.0	2.4840007860039	1	early	em_task	n/a	n/a	n/a	n/a	127.847590981129
20.4840007860039	0.75	1	early	em_task_post	n/a	n/a	n/a	n/a	n/a
28.0	1.5	2	late	stimulus	n/a	82.5	n/a	n/a	n/a
39.5	0.5	2	late	dm_task_pre	n/a	n/a	n/a	n/a	n/a
40.0	0.960959657997591	2	late	dm_task	0.960959657997591	n/a	0.0	-1.0	n/a
40.96095965799759	0.75	2	late	dm_task_post	n/a	n/a	n/a	n/a	n/a
45.5	0.5	2	late	em_task_pre	n/a	n/a	n/a	n/a	n/a
46.0	2.890624835999901	2	late	em_task	n/a	n/a	n/a	n/a	71.8749974808364
48.8906248359999	0.75	2	late	em_task_post	n/a	n/a	n/a	n/a	n/a
56.0	1.5	3	late	stimulus	n/a	67.5	n/a	n/a	n/a
67.5	0.5	3	late	dm_task_pre	n/a	n/a	n/a	n/a	n/a
68.0	0.832932885998162	3	late	dm_task	0.832932885998162	n/a	0.0	-1.0	n/a
68.83293288599816	0.75	3	late	dm_task_post	n/a	n/a	n/a	n/a	n/a
73.5	0.5	3	late	em_task_pre	n/a	n/a	n/a	n/a	n/a
74.0	2.1141135020006985	3	late	em_task	n/a	n/a	n/a	n/a	62.4384846927925
76.11411350200069	0.75	3	late	em_task_post	n/a	n/a	n/a	n/a	n/a
84.0	1.5	4	early	stimulus	n/a	142.5	n/a	n/a	n/a
89.5	0.5	4	early	dm_task_pre	n/a	n/a	n/a	n/a	n/a
90.0	0.55943151700194	4	early	dm_task	0.55943151700194	n/a	-21.0	1.0	n/a
90.55943151700194	0.75	4	early	dm_task_post	n/a	n/a	n/a	n/a	n/a
101.5	0.5	4	early	em_task_pre	n/a	n/a	n/a	n/a	n/a
102.0	2.5876009170024012	4	early	em_task	n/a	n/a	n/a	n/a	136.476610599087
104.5876009170024	0.75	4	early	em_task_post	n/a	n/a	n/a	n/a	n/a
112.0	1.5	5	early	stimulus	n/a	75.0	n/a	n/a	n/a
117.5	0.5	5	early	dm_task_pre	n/a	n/a	n/a	n/a	n/a
118.0	0.447880413994426	5	early	dm_task	0.447880413994426	n/a	21.0	-1.0	n/a
118.44788041399443	0.75	5	early	dm_task_post	n/a	n/a	n/a	n/a	n/a
129.5	0.5	5	early	em_task_pre	n/a	n/a	n/a	n/a	n/a
130.0	2.5936430319998003	5	early	em_task	n/a	n/a	n/a	n/a	70.1637256686904
132.5936430319998	0.75	5	early	em_task_post	n/a	n/a	n/a	n/a	n/a
140.0	1.5	6	late	stimulus	n/a	150.0	n/a	n/a	n/a
151.5	0.5	6	late	dm_task_pre	n/a	n/a	n/a	n/a	n/a
152.0	0.519538392996765	6	late	dm_task	0.519538392996765	n/a	-21.0	1.0	n/a
152.51953839299676	0.75	6	late	dm_task_post	n/a	n/a	n/a	n/a	n/a
157.5	0.5	6	late	em_task_pre	n/a	n/a	n/a	n/a	n/a
158.0	2.5335987319995006	6	late	em_task	n/a	n/a	n/a	n/a	147.471102545959
160.5335987319995	0.75	6	late	em_task_post	n/a	n/a	n/a	n/a	n/a
168.0	1.5	7	early	stimulus	n/a	0.0	n/a	n/a	n/a
173.5	0.5	7	early	dm_task_pre	n/a	n/a	n/a	n/a	n/a
174.0	1.3278791460034	7	early	dm_task	1.3278791460034	n/a	-4.0	1.0	n/a
175.3278791460034	0.75	7	early	dm_task_post	n/a	n/a	n/a	n/a	n/a
185.5	0.5	7	early	em_task_pre	n/a	n/a	n/a	n/a	n/a
186.0	2.240460764995099	7	early	em_task	n/a	n/a	n/a	n/a	176.451792984787
188.2404607649951	0.75	7	early	em_task_post	n/a	n/a	n/a	n/a	n/a
196.0	1.5	8	late	stimulus	n/a	157.5	n/a	n/a	n/a
207.5	0.5	8	late	dm_task_pre	n/a	n/a	n/a	n/a	n/a
208.0	0.831927652994636	8	late	dm_task	0.831927652994636	n/a	0.0	1.0	n/a
208.83192765299464	0.75	8	late	dm_task_post	n/a	n/a	n/a	n/a	n/a
213.5	0.5	8	late	em_task_pre	n/a	n/a	n/a	n/a	n/a
214.0	3.9975787459989007	8	late	em_task	n/a	n/a	n/a	n/a	153.683814455652
217.9975787459989	0.75	8	late	em_task_post	n/a	n/a	n/a	n/a	n/a
224.0	1.5	9	late	stimulus	n/a	112.5	n/a	n/a	n/a
235.5	0.5	9	late	dm_task_pre	n/a	n/a	n/a	n/a	n/a
236.0	0.772293057001662	9	late	dm_task	0.772293057001662	n/a	-4.0	1.0	n/a
236.77229305700166	0.75	9	late	dm_task_post	n/a	n/a	n/a	n/a	n/a
241.5	0.5	9	late	em_task_pre	n/a	n/a	n/a	n/a	n/a
242.0	2.087439886003299	9	late	em_task	n/a	n/a	n/a	n/a	115.556588260457
244.0874398860033	0.75	9	late	em_task_post	n/a	n/a	n/a	n/a	n/a
252.0	1.5	10	late	stimulus	n/a	97.5	n/a	n/a	n/a
263.5	0.5	10	late	dm_task_pre	n/a	n/a	n/a	n/a	n/a
264.0	0.662251325004036	10	late	dm_task	0.662251325004036	n/a	0.0	1.0	n/a
264.66225132500404	0.75	10	late	dm_task_post	n/a	n/a	n/a	n/a	n/a
269.5	0.5	10	late	em_task_pre	n/a	n/a	n/a	n/a	n/a
270.0	3.0092774850053985	10	late	em_task	n/a	n/a	n/a	n/a	107.82080072617
273.0092774850054	0.75	10	late	em_task_post	n/a	n/a	n/a	n/a	n/a
280.0	1.5	11	early	stimulus	n/a	15.0	n/a	n/a	n/a
285.5	0.5	11	early	dm_task_pre	n/a	n/a	n/a	n/a	n/a
286.0	0.554036724002799	11	early	dm_task	0.554036724002799	n/a	-4.0	1.0	n/a
286.5540367240028	0.75	11	early	dm_task_post	n/a	n/a	n/a	n/a	n/a
297.5	0.5	11	early	em_task_pre	n/a	n/a	n/a	n/a	n/a
298.0	1.9836202580044997	11	early	em_task	n/a	n/a	n/a	n/a	21.2574623216303
299.9836202580045	0.75	11	early	em_task_post	n/a	n/a	n/a	n/a	n/a
308.0	1.5	12	late	stimulus	n/a	105.0	n/a	n/a	n/a
319.5	0.5	12	late	dm_task_pre	n/a	n/a	n/a	n/a	n/a
320.0	1.24165321300097	12	late	dm_task	1.24165321300097	n/a	0.0	1.0	n/a
321.241653213001	0.75	12	late	dm_task_post	n/a	n/a	n/a	n/a	n/a
325.5	0.5	12	late	em_task_pre	n/a	n/a	n/a	n/a	n/a
326.0	4.5	12	late	em_task	n/a	n/a	n/a	n/a	n/a
330.5	0.75	12	late	em_task_post	n/a	n/a	n/a	n/a	n/a
