onset	duration	trial	trial_type	event_type	response_time	value_stimulus	value_reference	response_decision	response_estimation
0.0	1.5	1	late	stimulus	n/a	157.5	n/a	n/a	n/a
11.5	0.5	1	late	dm_task_pre	n/a	n/a	n/a	n/a	n/a
12.0	1.03486369299935	1	late	dm_task	1.03486369299935	n/a	-21.0	1.0	n/a
13.03486369299935	0.75	1	late	dm_task_post	n/a	n/a	n/a	n/a	n/a
17.5	0.5	1	late	em_task_pre	n/a	n/a	n/a	n/a	n/a
18.0	4.055673759983598	1	late	em_task	n/a	n/a	n/a	n/a	152.338983152813
22.0556737599836	0.75	1	late	em_task_post	n/a	n/a	n/a	n/a	n/a
28.0	1.5	2	early	stimulus	n/a	97.5	n/a	n/a	n/a
33.5	0.5	2	early	dm_task_pre	n/a	n/a	n/a	n/a	n/a
34.0	1.15857200798928	2	early	dm_task	1.15857200798928	n/a	21.0	-1.0	n/a
35.15857200798928	0.75	2	early	dm_task_post	n/a	n/a	n/a	n/a	n/a
45.5	0.5	2	early	em_task_pre	n/a	n/a	n/a	n/a	n/a
46.0	3.6650988890033	2	early	em_task	n/a	n/a	n/a	n/a	100.819001953217
49.6650988890033	0.75	2	early	em_task_post	n/a	n/a	n/a	n/a	n/a
56.0	1.5	3	early	stimulus	n/a	127.5	n/a	n/a	n/a
61.5	0.5	3	early	dm_task_pre	n/a	n/a	n/a	n/a	n/a
62.0	0.968733801011695	3	early	dm_task	0.968733801011695	n/a	4.0	-1.0	n/a
62.968733801011695	0.75	3	early	dm_task_post	n/a	n/a	n/a	n/a	n/a
73.5	0.5	3	early	em_task_pre	n/a	n/a	n/a	n/a	n/a
74.0	3.872494301002	3	early	em_task	n/a	n/a	n/a	n/a	146.275243614507
77.872494301002	0.75	3	early	em_task_post	n/a	n/a	n/a	n/a	n/a
84.0	1.5	4	late	stimulus	n/a	142.5	n/a	n/a	n/a
95.5	0.5	4	late	dm_task_pre	n/a	n/a	n/a	n/a	n/a
96.0	0.611369991995161	4	late	dm_task	0.611369991995161	n/a	-21.0	1.0	n/a
96.61136999199516	0.75	4	late	dm_task_post	n/a	n/a	n/a	n/a	n/a
101.5	0.5	4	late	em_task_pre	n/a	n/a	n/a	n/a	n/a
102.0	3.5167246290074985	4	late	em_task	n/a	n/a	n/a	n/a	160.387279158142
105.5167246290075	0.75	4	late	em_task_post	n/a	n/a	n/a	n/a	n/a
112.0	1.5	5	early	stimulus	n/a	75.0	n/a	n/a	n/a
117.5	0.5	5	early	dm_task_pre	n/a	n/a	n/a	n/a	n/a
118.0	0.819096552004339	5	early	dm_task	0.819096552004339	n/a	-4.0	-1.0	n/a
118.81909655200434	0.75	5	early	dm_task_post	n/a	n/a	n/a	n/a	n/a
129.5	0.5	5	early	em_task_pre	n/a	n/a	n/a	n/a	n/a
130.0	3.3586827719991987	5	early	em_task	n/a	n/a	n/a	n/a	64.3205283407432
133.3586827719992	0.75	5	early	em_task_post	n/a	n/a	n/a	n/a	n/a
140.0	1.5	6	late	stimulus	n/a	7.5	n/a	n/a	n/a
151.5	0.5	6	late	dm_task_pre	n/a	n/a	n/a	n/a	n/a
152.0	0.763684867008124	6	late	dm_task	0.763684867008124	n/a	21.0	-1.0	n/a
152.76368486700812	0.75	6	late	dm_task_post	n/a	n/a	n/a	n/a	n/a
157.5	0.5	6	late	em_task_pre	n/a	n/a	n/a	n/a	n/a
158.0	4.5	6	late	em_task	n/a	n/a	n/a	n/a	n/a
162.5	0.75	6	late	em_task_post	n/a	n/a	n/a	n/a	n/a
168.0	1.5	7	late	stimulus	n/a	120.0	n/a	n/a	n/a
179.5	0.5	7	late	dm_task_pre	n/a	n/a	n/a	n/a	n/a
180.0	0.656965778995072	7	late	dm_task	0.656965778995072	n/a	-21.0	1.0	n/a
180.65696577899507	0.75	7	late	dm_task_post	n/a	n/a	n/a	n/a	n/a
185.5	0.5	7	late	em_task_pre	n/a	n/a	n/a	n/a	n/a
186.0	3.7094392240105982	7	late	em_task	n/a	n/a	n/a	n/a	120.732843200791
189.7094392240106	0.75	7	late	em_task_post	n/a	n/a	n/a	n/a	n/a
196.0	1.5	8	late	stimulus	n/a	172.5	n/a	n/a	n/a
207.5	0.5	8	late	dm_task_pre	n/a	n/a	n/a	n/a	n/a
208.0	1.5	8	late	dm_task	1.93151125198347	n/a	-4.0	-1.0	n/a
209.5	0.75	8	late	dm_task_post	n/a	n/a	n/a	n/a	n/a
213.5	0.5	8	late	em_task_pre	n/a	n/a	n/a	n/a	n/a
214.0	1.8511566439992997	8	late	em_task	n/a	n/a	n/a	n/a	162.765650323313
215.8511566439993	0.75	8	late	em_task_post	n/a	n/a	n/a	n/a	n/a
224.0	1.5	9	early	stimulus	n/a	60.0	n/a	n/a	n/a
229.5	0.5	9	early	dm_task_pre	n/a	n/a	n/a	n/a	n/a
230.0	0.890532586985501	9	early	dm_task	0.890532586985501	n/a	-4.0	1.0	n/a
230.8905325869855	0.75	9	early	dm_task_post	n/a	n/a	n/a	n/a	n/a
241.5	0.5	9	early	em_task_pre	n/a	n/a	n/a	n/a	n/a
242.0	3.0945617140096005	9	early	em_task	n/a	n/a	n/a	n/a	59.2983847746756
245.09456171400961	0.75	9	early	em_task_post	n/a	n/a	n/a	n/a	n/a
252.0	1.5	10	early	stimulus	n/a	67.5	n/a	n/a	n/a
257.5	0.5	10	early	dm_task_pre	n/a	n/a	n/a	n/a	n/a
258.0	0.731548326002667	10	early	dm_task	0.731548326002667	n/a	-4.0	-1.0	n/a
258.73154832600267	0.75	10	early	dm_task_post	n/a	n/a	n/a	n/a	n/a
269.5	0.5	10	early	em_task_pre	n/a	n/a	n/a	n/a	n/a
270.0	2.354549523995999	10	early	em_task	n/a	n/a	n/a	n/a	58.5139920052863
272.354549523996	0.75	10	early	em_task_post	n/a	n/a	n/a	n/a	n/a
280.0	1.5	11	late	stimulus	n/a	82.5	n/a	n/a	n/a
291.5	0.5	11	late	dm_task_pre	n/a	n/a	n/a	n/a	n/a
292.0	0.792572173988447	11	late	dm_task	0.792572173988447	n/a	21.0	-1.0	n/a
292.79257217398845	0.75	11	late	dm_task_post	n/a	n/a	n/a	n/a	n/a
297.5	0.5	11	late	em_task_pre	n/a	n/a	n/a	n/a	n/a
298.0	2.996532363002199	11	late	em_task	n/a	n/a	n/a	n/a	69.4477963665014
300.9965323630022	0.75	11	late	em_task_post	n/a	n/a	n/a	n/a	n/a
308.0	1.5	12	early	stimulus	n/a	165.0	n/a	n/a	n/a
313.5	0.5	12	early	dm_task_pre	n/a	n/a	n/a	n/a	n/a
314.0	1.11613039099029	12	early	dm_task	1.11613039099029	n/a	0.0	-1.0	n/a
315.1161303909903	0.75	12	early	dm_task_post	n/a	n/a	n/a	n/a	n/a
325.5	0.5	12	early	em_task_pre	n/a	n/a	n/a	n/a	n/a
326.0	2.6717389370023987	12	early	em_task	n/a	n/a	n/a	n/a	163.851264978249
328.6717389370024	0.75	12	early	em_task_post	n/a	n/a	n/a	n/a	n/a
