onset	duration	trial	trial_type	event_type	response_time	value_stimulus	value_reference	response_decision	response_estimation
0.0	1.5	1	early	stimulus	n/a	37.5	n/a	n/a	n/a
5.5	0.5	1	early	dm_task_pre	n/a	n/a	n/a	n/a	n/a
6.0	0.622914033010602	1	early	dm_task	0.622914033010602	n/a	4.0	-1.0	n/a
6.622914033010602	0.75	1	early	dm_task_post	n/a	n/a	n/a	n/a	n/a
17.5	0.5	1	early	em_task_pre	n/a	n/a	n/a	n/a	n/a
18.0	2.6953390659763983	1	early	em_task	n/a	n/a	n/a	n/a	36.0298769609216
20.6953390659764	0.75	1	early	em_task_post	n/a	n/a	n/a	n/a	n/a
28.0	1.5	2	early	stimulus	n/a	97.5	n/a	n/a	n/a
33.5	0.5	2	early	dm_task_pre	n/a	n/a	n/a	n/a	n/a
34.0	0.931553201982751	2	early	dm_task	0.931553201982751	n/a	4.0	-1.0	n/a
34.93155320198275	0.75	2	early	dm_task_post	n/a	n/a	n/a	n/a	n/a
45.5	0.5	2	early	em_task_pre	n/a	n/a	n/a	n/a	n/a
46.0	4.5	2	early	em_task	n/a	n/a	n/a	n/a	n/a
50.5	0.75	2	early	em_task_post	n/a	n/a	n/a	n/a	n/a
56.0	1.5	3	early	stimulus	n/a	172.5	n/a	n/a	n/a
61.5	0.5	3	early	dm_task_pre	n/a	n/a	n/a	n/a	n/a
62.0	0.893556080001872	3	early	dm_task	0.893556080001872	n/a	4.0	-1.0	n/a
62.89355608000187	0.75	3	early	dm_task_post	n/a	n/a	n/a	n/a	n/a
73.5	0.5	3	early	em_task_pre	n/a	n/a	n/a	n/a	n/a
74.0	3.5467050449806017	3	early	em_task	n/a	n/a	n/a	n/a	173.962556710283
77.5467050449806	0.75	3	early	em_task_post	n/a	n/a	n/a	n/a	n/a
84.0	1.5	4	early	stimulus	n/a	0.0	n/a	n/a	n/a
89.5	0.5	4	early	dm_task_pre	n/a	n/a	n/a	n/a	n/a
90.0	0.634810596995521	4	early	dm_task	0.634810596995521	n/a	0.0	1.0	n/a
90.63481059699552	0.75	4	early	dm_task_post	n/a	n/a	n/a	n/a	n/a
101.5	0.5	4	early	em_task_pre	n/a	n/a	n/a	n/a	n/a
102.0	1.6725381219875999	4	early	em_task	n/a	n/a	n/a	n/a	2.69349105660627
103.6725381219876	0.75	4	early	em_task_post	n/a	n/a	n/a	n/a	n/a
112.0	1.5	5	early	stimulus	n/a	165.0	n/a	n/a	n/a
117.5	0.5	5	early	dm_task_pre	n/a	n/a	n/a	n/a	n/a
118.0	0.56102544098394	5	early	dm_task	0.56102544098394	n/a	0.0	-1.0	n/a
118.56102544098394	0.75	5	early	dm_task_post	n/a	n/a	n/a	n/a	n/a
129.5	0.5	5	early	em_task_pre	n/a	n/a	n/a	n/a	n/a
130.0	3.466478237009099	5	early	em_task	n/a	n/a	n/a	n/a	157.835293175846
133.46647823700908	0.75	5	early	em_task_post	n/a	n/a	n/a	n/a	n/a
140.0	1.5	6	late	stimulus	n/a	105.0	n/a	n/a	n/a
151.5	0.5	6	late	dm_task_pre	n/a	n/a	n/a	n/a	n/a
152.0	1.08753829699708	6	late	dm_task	1.08753829699708	n/a	4.0	-1.0	n/a
153.08753829699708	0.75	6	late	dm_task_post	n/a	n/a	n/a	n/a	n/a
157.5	0.5	6	late	em_task_pre	n/a	n/a	n/a	n/a	n/a
158.0	2.692066173011	6	late	em_task	n/a	n/a	n/a	n/a	111.534393462734
160.692066173011	0.75	6	late	em_task_post	n/a	n/a	n/a	n/a	n/a
168.0	1.5	7	early	stimulus	n/a	157.5	n/a	n/a	n/a
173.5	0.5	7	early	dm_task_pre	n/a	n/a	n/a	n/a	n/a
174.0	0.528374518966302	7	early	dm_task	0.528374518966302	n/a	4.0	-1.0	n/a
174.5283745189663	0.75	7	early	dm_task_post	n/a	n/a	n/a	n/a	n/a
185.5	0.5	7	early	em_task_pre	n/a	n/a	n/a	n/a	n/a
186.0	2.350487580988599	7	early	em_task	n/a	n/a	n/a	n/a	137.252755489021
188.3504875809886	0.75	7	early	em_task_post	n/a	n/a	n/a	n/a	n/a
196.0	1.5	8	early	stimulus	n/a	45.0	n/a	n/a	n/a
201.5	0.5	8	early	dm_task_pre	n/a	n/a	n/a	n/a	n/a
202.0	0.621415706002153	8	early	dm_task	0.621415706002153	n/a	0.0	-1.0	n/a
202.62141570600215	0.75	8	early	dm_task_post	n/a	n/a	n/a	n/a	n/a
213.5	0.5	8	early	em_task_pre	n/a	n/a	n/a	n/a	n/a
214.0	3.042982404003901	8	early	em_task	n/a	n/a	n/a	n/a	34.1634038991485
217.0429824040039	0.75	8	early	em_task_post	n/a	n/a	n/a	n/a	n/a
224.0	1.5	9	late	stimulus	n/a	112.5	n/a	n/a	n/a
235.5	0.5	9	late	dm_task_pre	n/a	n/a	n/a	n/a	n/a
236.0	0.766565272002481	9	late	dm_task	0.766565272002481	n/a	4.0	1.0	n/a
236.76656527200248	0.75	9	late	dm_task_post	n/a	n/a	n/a	n/a	n/a
241.5	0.5	9	late	em_task_pre	n/a	n/a	n/a	n/a	n/a
242.0	1.9014391690142993	9	late	em_task	n/a	n/a	n/a	n/a	120.357250191618
243.9014391690143	0.75	9	late	em_task_post	n/a	n/a	n/a	n/a	n/a
252.0	1.5	10	late	stimulus	n/a	120.0	n/a	n/a	n/a
263.5	0.5	10	late	dm_task_pre	n/a	n/a	n/a	n/a	n/a
264.0	0.62517273996491	10	late	dm_task	0.62517273996491	n/a	-4.0	1.0	n/a
264.6251727399649	0.75	10	late	dm_task_post	n/a	n/a	n/a	n/a	n/a
269.5	0.5	10	late	em_task_pre	n/a	n/a	n/a	n/a	n/a
270.0	2.3280979460105016	10	late	em_task	n/a	n/a	n/a	n/a	116.862260936357
272.32809794601053	0.75	10	late	em_task_post	n/a	n/a	n/a	n/a	n/a
280.0	1.5	11	early	stimulus	n/a	82.5	n/a	n/a	n/a
285.5	0.5	11	early	dm_task_pre	n/a	n/a	n/a	n/a	n/a
286.0	0.549750659964047	11	early	dm_task	0.549750659964047	n/a	-21.0	1.0	n/a
286.54975065996405	0.75	11	early	dm_task_post	n/a	n/a	n/a	n/a	n/a
297.5	0.5	11	early	em_task_pre	n/a	n/a	n/a	n/a	n/a
298.0	2.9195212560006993	11	early	em_task	n/a	n/a	n/a	n/a	73.7222735410305
300.9195212560007	0.75	11	early	em_task_post	n/a	n/a	n/a	n/a	n/a
308.0	1.5	12	late	stimulus	n/a	127.5	n/a	n/a	n/a
319.5	0.5	12	late	dm_task_pre	n/a	n/a	n/a	n/a	n/a
320.0	0.510515954985749	12	late	dm_task	0.510515954985749	n/a	-21.0	1.0	n/a
320.51051595498575	0.75	12	late	dm_task_post	n/a	n/a	n/a	n/a	n/a
325.5	0.5	12	late	em_task_pre	n/a	n/a	n/a	n/a	n/a
326.0	1.6955535549787015	12	late	em_task	n/a	n/a	n/a	n/a	129.710266997565
327.6955535549787	0.75	12	late	em_task_post	n/a	n/a	n/a	n/a	n/a
