onset	duration	trial	trial_type	event_type	response_time	value_stimulus	value_reference	response_decision	response_estimation
0.0	1.5	1	early	stimulus	n/a	82.5	n/a	n/a	n/a
5.5	0.5	1	early	dm_task_pre	n/a	n/a	n/a	n/a	n/a
6.0	0.816357707022689	1	early	dm_task	0.816357707022689	n/a	-4.0	1.0	n/a
6.816357707022689	0.75	1	early	dm_task_post	n/a	n/a	n/a	n/a	n/a
17.5	0.5	1	early	em_task_pre	n/a	n/a	n/a	n/a	n/a
18.0	2.979624370927901	1	early	em_task	n/a	n/a	n/a	n/a	79.2139831528127
20.9796243709279	0.75	1	early	em_task_post	n/a	n/a	n/a	n/a	n/a
28.0	1.5	2	late	stimulus	n/a	97.5	n/a	n/a	n/a
39.5	0.5	2	late	dm_task_pre	n/a	n/a	n/a	n/a	n/a
40.0	0.556316899019293	2	late	dm_task	0.556316899019293	n/a	21.0	-1.0	n/a
40.55631689901929	0.75	2	late	dm_task_post	n/a	n/a	n/a	n/a	n/a
45.5	0.5	2	late	em_task_pre	n/a	n/a	n/a	n/a	n/a
46.0	2.8544295229948986	2	late	em_task	n/a	n/a	n/a	n/a	104.334626953217
48.8544295229949	0.75	2	late	em_task_post	n/a	n/a	n/a	n/a	n/a
56.0	1.5	3	early	stimulus	n/a	120.0	n/a	n/a	n/a
61.5	0.5	3	early	dm_task_pre	n/a	n/a	n/a	n/a	n/a
62.0	1.04693442792632	3	early	dm_task	1.04693442792632	n/a	-4.0	1.0	n/a
63.04693442792632	0.75	3	early	dm_task_post	n/a	n/a	n/a	n/a	n/a
73.5	0.5	3	early	em_task_pre	n/a	n/a	n/a	n/a	n/a
74.0	2.2111796579557	3	early	em_task	n/a	n/a	n/a	n/a	135.728368614507
76.2111796579557	0.75	3	early	em_task_post	n/a	n/a	n/a	n/a	n/a
84.0	1.5	4	late	stimulus	n/a	45.0	n/a	n/a	n/a
95.5	0.5	4	late	dm_task_pre	n/a	n/a	n/a	n/a	n/a
96.0	0.684552491991781	4	late	dm_task	0.684552491991781	n/a	-4.0	-1.0	n/a
96.68455249199178	0.75	4	late	dm_task_post	n/a	n/a	n/a	n/a	n/a
101.5	0.5	4	late	em_task_pre	n/a	n/a	n/a	n/a	n/a
102.0	1.9363719579997003	4	late	em_task	n/a	n/a	n/a	n/a	21.1685291581423
103.9363719579997	0.75	4	late	em_task_post	n/a	n/a	n/a	n/a	n/a
112.0	1.5	5	early	stimulus	n/a	0.0	n/a	n/a	n/a
117.5	0.5	5	early	dm_task_pre	n/a	n/a	n/a	n/a	n/a
118.0	0.675547208986245	5	early	dm_task	0.675547208986245	n/a	-4.0	1.0	n/a
118.67554720898625	0.75	5	early	dm_task_post	n/a	n/a	n/a	n/a	n/a
129.5	0.5	5	early	em_task_pre	n/a	n/a	n/a	n/a	n/a
130.0	3.4893629519501985	5	early	em_task	n/a	n/a	n/a	n/a	5.96115334074318
133.4893629519502	0.75	5	early	em_task_post	n/a	n/a	n/a	n/a	n/a
140.0	1.5	6	late	stimulus	n/a	60.0	n/a	n/a	n/a
151.5	0.5	6	late	dm_task_pre	n/a	n/a	n/a	n/a	n/a
152.0	0.616779963951558	6	late	dm_task	0.616779963951558	n/a	0.0	1.0	n/a
152.61677996395156	0.75	6	late	dm_task_post	n/a	n/a	n/a	n/a	n/a
157.5	0.5	6	late	em_task_pre	n/a	n/a	n/a	n/a	n/a
158.0	1.9292358959792004	6	late	em_task	n/a	n/a	n/a	n/a	68.4917496599575
159.9292358959792	0.75	6	late	em_task_post	n/a	n/a	n/a	n/a	n/a
168.0	1.5	7	early	stimulus	n/a	135.0	n/a	n/a	n/a
173.5	0.5	7	early	dm_task_pre	n/a	n/a	n/a	n/a	n/a
174.0	0.508620886947028	7	early	dm_task	0.508620886947028	n/a	-4.0	1.0	n/a
174.50862088694703	0.75	7	early	dm_task_post	n/a	n/a	n/a	n/a	n/a
185.5	0.5	7	early	em_task_pre	n/a	n/a	n/a	n/a	n/a
186.0	2.519091042922799	7	early	em_task	n/a	n/a	n/a	n/a	162.920343200791
188.5190910429228	0.75	7	early	em_task_post	n/a	n/a	n/a	n/a	n/a
196.0	1.5	8	early	stimulus	n/a	165.0	n/a	n/a	n/a
201.5	0.5	8	early	dm_task_pre	n/a	n/a	n/a	n/a	n/a
202.0	0.563571473001502	8	early	dm_task	0.563571473001502	n/a	-4.0	1.0	n/a
202.5635714730015	0.75	8	early	dm_task_post	n/a	n/a	n/a	n/a	n/a
213.5	0.5	8	early	em_task_pre	n/a	n/a	n/a	n/a	n/a
214.0	1.5953772990032995	8	early	em_task	n/a	n/a	n/a	n/a	159.250025323313
215.5953772990033	0.75	8	early	em_task_post	n/a	n/a	n/a	n/a	n/a
224.0	1.5	9	early	stimulus	n/a	157.5	n/a	n/a	n/a
229.5	0.5	9	early	dm_task_pre	n/a	n/a	n/a	n/a	n/a
230.0	1.15256966091692	9	early	dm_task	1.15256966091692	n/a	4.0	1.0	n/a
231.15256966091692	0.75	9	early	dm_task_post	n/a	n/a	n/a	n/a	n/a
241.5	0.5	9	early	em_task_pre	n/a	n/a	n/a	n/a	n/a
242.0	3.233898239908701	9	early	em_task	n/a	n/a	n/a	n/a	157.735884774676
245.2338982399087	0.75	9	early	em_task_post	n/a	n/a	n/a	n/a	n/a
252.0	1.5	10	early	stimulus	n/a	67.5	n/a	n/a	n/a
257.5	0.5	10	early	dm_task_pre	n/a	n/a	n/a	n/a	n/a
258.0	1.14338052796666	10	early	dm_task	1.14338052796666	n/a	4.0	1.0	n/a
259.14338052796666	0.75	10	early	dm_task_post	n/a	n/a	n/a	n/a	n/a
269.5	0.5	10	early	em_task_pre	n/a	n/a	n/a	n/a	n/a
270.0	1.7408402849687015	10	early	em_task	n/a	n/a	n/a	n/a	65.5452420052863
271.7408402849687	0.75	10	early	em_task_post	n/a	n/a	n/a	n/a	n/a
280.0	1.5	11	late	stimulus	n/a	22.5	n/a	n/a	n/a
291.5	0.5	11	late	dm_task_pre	n/a	n/a	n/a	n/a	n/a
292.0	0.713766745990142	11	late	dm_task	0.713766745990142	n/a	0.0	-1.0	n/a
292.71376674599014	0.75	11	late	dm_task_post	n/a	n/a	n/a	n/a	n/a
297.5	0.5	11	late	em_task_pre	n/a	n/a	n/a	n/a	n/a
298.0	2.0121952079935	11	late	em_task	n/a	n/a	n/a	n/a	16.7134213665014
300.0121952079935	0.75	11	late	em_task_post	n/a	n/a	n/a	n/a	n/a
308.0	1.5	12	early	stimulus	n/a	15.0	n/a	n/a	n/a
313.5	0.5	12	early	dm_task_pre	n/a	n/a	n/a	n/a	n/a
314.0	0.788302393979393	12	early	dm_task	0.788302393979393	n/a	4.0	-1.0	n/a
314.7883023939794	0.75	12	early	dm_task_post	n/a	n/a	n/a	n/a	n/a
325.5	0.5	12	early	em_task_pre	n/a	n/a	n/a	n/a	n/a
326.0	3.185141898924499	12	early	em_task	n/a	n/a	n/a	n/a	10.5700149782485
329.1851418989245	0.75	12	early	em_task_post	n/a	n/a	n/a	n/a	n/a
