onset	duration	trial	trial_type	event_type	response_time	value_stimulus	value_reference	response_decision	response_estimation
0.0	1.5	1	late	stimulus	n/a	165.0	n/a	n/a	n/a
11.5	0.5	1	late	dm_task_pre	n/a	n/a	n/a	n/a	n/a
12.0	1.16531370196026	1	late	dm_task	1.16531370196026	n/a	0.0	-1.0	n/a
13.16531370196026	0.75	1	late	dm_task_post	n/a	n/a	n/a	n/a	n/a
17.5	0.5	1	late	em_task_pre	n/a	n/a	n/a	n/a	n/a
18.0	2.7344412829842994	1	late	em_task	n/a	n/a	n/a	n/a	168.015153030196
20.7344412829843	0.75	1	late	em_task_post	n/a	n/a	n/a	n/a	n/a
28.0	1.5	2	early	stimulus	n/a	150.0	n/a	n/a	n/a
33.5	0.5	2	early	dm_task_pre	n/a	n/a	n/a	n/a	n/a
34.0	0.470632959972136	2	early	dm_task	0.470632959972136	n/a	-21.0	1.0	n/a
34.470632959972136	0.75	2	early	dm_task_post	n/a	n/a	n/a	n/a	n/a
45.5	0.5	2	early	em_task_pre	n/a	n/a	n/a	n/a	n/a
46.0	2.1575980029884008	2	early	em_task	n/a	n/a	n/a	n/a	156.653611987766
48.1575980029884	0.75	2	early	em_task_post	n/a	n/a	n/a	n/a	n/a
56.0	1.5	3	late	stimulus	n/a	157.5	n/a	n/a	n/a
67.5	0.5	3	late	dm_task_pre	n/a	n/a	n/a	n/a	n/a
68.0	0.862529464007821	3	late	dm_task	0.862529464007821	n/a	-4.0	1.0	n/a
68.86252946400782	0.75	3	late	dm_task_post	n/a	n/a	n/a	n/a	n/a
73.5	0.5	3	late	em_task_pre	n/a	n/a	n/a	n/a	n/a
74.0	1.9481011679744995	3	late	em_task	n/a	n/a	n/a	n/a	159.150374544184
75.9481011679745	0.75	3	late	em_task_post	n/a	n/a	n/a	n/a	n/a
84.0	1.5	4	early	stimulus	n/a	120.0	n/a	n/a	n/a
89.5	0.5	4	early	dm_task_pre	n/a	n/a	n/a	n/a	n/a
90.0	0.484864272002596	4	early	dm_task	0.484864272002596	n/a	-4.0	1.0	n/a
90.4848642720026	0.75	4	early	dm_task_post	n/a	n/a	n/a	n/a	n/a
101.5	0.5	4	early	em_task_pre	n/a	n/a	n/a	n/a	n/a
102.0	3.508178568969001	4	early	em_task	n/a	n/a	n/a	n/a	120.371710420017
105.508178568969	0.75	4	early	em_task_post	n/a	n/a	n/a	n/a	n/a
112.0	1.5	5	early	stimulus	n/a	22.5	n/a	n/a	n/a
117.5	0.5	5	early	dm_task_pre	n/a	n/a	n/a	n/a	n/a
118.0	0.674445799959358	5	early	dm_task	0.674445799959358	n/a	0.0	1.0	n/a
118.67444579995936	0.75	5	early	dm_task_post	n/a	n/a	n/a	n/a	n/a
129.5	0.5	5	early	em_task_pre	n/a	n/a	n/a	n/a	n/a
130.0	2.1289247070089985	5	early	em_task	n/a	n/a	n/a	n/a	37.9346249546379
132.128924707009	0.75	5	early	em_task_post	n/a	n/a	n/a	n/a	n/a
140.0	1.5	6	late	stimulus	n/a	90.0	n/a	n/a	n/a
151.5	0.5	6	late	dm_task_pre	n/a	n/a	n/a	n/a	n/a
152.0	1.13268583599711	6	late	dm_task	1.13268583599711	n/a	-4.0	1.0	n/a
153.1326858359971	0.75	6	late	dm_task_post	n/a	n/a	n/a	n/a	n/a
157.5	0.5	6	late	em_task_pre	n/a	n/a	n/a	n/a	n/a
158.0	1.9180792759871004	6	late	em_task	n/a	n/a	n/a	n/a	88.6569968973459
159.9180792759871	0.75	6	late	em_task_post	n/a	n/a	n/a	n/a	n/a
168.0	1.5	7	late	stimulus	n/a	142.5	n/a	n/a	n/a
179.5	0.5	7	late	dm_task_pre	n/a	n/a	n/a	n/a	n/a
180.0	0.823298968956806	7	late	dm_task	0.823298968956806	n/a	-4.0	1.0	n/a
180.8232989689568	0.75	7	late	dm_task_post	n/a	n/a	n/a	n/a	n/a
185.5	0.5	7	late	em_task_pre	n/a	n/a	n/a	n/a	n/a
186.0	3.811331868986599	7	late	em_task	n/a	n/a	n/a	n/a	148.318246855249
189.8113318689866	0.75	7	late	em_task_post	n/a	n/a	n/a	n/a	n/a
196.0	1.5	8	early	stimulus	n/a	45.0	n/a	n/a	n/a
201.5	0.5	8	early	dm_task_pre	n/a	n/a	n/a	n/a	n/a
202.0	0.480424723995384	8	early	dm_task	0.480424723995384	n/a	21.0	-1.0	n/a
202.48042472399538	0.75	8	early	dm_task_post	n/a	n/a	n/a	n/a	n/a
213.5	0.5	8	early	em_task_pre	n/a	n/a	n/a	n/a	n/a
214.0	2.0570743569988004	8	early	em_task	n/a	n/a	n/a	n/a	31.6474525096003
216.0570743569988	0.75	8	early	em_task_post	n/a	n/a	n/a	n/a	n/a
224.0	1.5	9	early	stimulus	n/a	30.0	n/a	n/a	n/a
229.5	0.5	9	early	dm_task_pre	n/a	n/a	n/a	n/a	n/a
230.0	0.589416084985714	9	early	dm_task	0.589416084985714	n/a	21.0	-1.0	n/a
230.58941608498571	0.75	9	early	dm_task_post	n/a	n/a	n/a	n/a	n/a
241.5	0.5	9	early	em_task_pre	n/a	n/a	n/a	n/a	n/a
242.0	2.3620785169769007	9	early	em_task	n/a	n/a	n/a	n/a	18.6732153219417
244.3620785169769	0.75	9	early	em_task_post	n/a	n/a	n/a	n/a	n/a
252.0	1.5	10	early	stimulus	n/a	67.5	n/a	n/a	n/a
257.5	0.5	10	early	dm_task_pre	n/a	n/a	n/a	n/a	n/a
258.0	0.742644435958937	10	early	dm_task	0.742644435958937	n/a	0.0	-1.0	n/a
258.74264443595894	0.75	10	early	dm_task_post	n/a	n/a	n/a	n/a	n/a
269.5	0.5	10	early	em_task_pre	n/a	n/a	n/a	n/a	n/a
270.0	4.198712872981599	10	early	em_task	n/a	n/a	n/a	n/a	56.9007899242499
274.1987128729816	0.75	10	early	em_task_post	n/a	n/a	n/a	n/a	n/a
280.0	1.5	11	late	stimulus	n/a	52.5	n/a	n/a	n/a
291.5	0.5	11	late	dm_task_pre	n/a	n/a	n/a	n/a	n/a
292.0	0.916841086000204	11	late	dm_task	0.916841086000204	n/a	21.0	-1.0	n/a
292.9168410860002	0.75	11	late	dm_task_post	n/a	n/a	n/a	n/a	n/a
297.5	0.5	11	late	em_task_pre	n/a	n/a	n/a	n/a	n/a
298.0	2.9192527279956018	11	late	em_task	n/a	n/a	n/a	n/a	37.4296840754556
300.9192527279956	0.75	11	late	em_task_post	n/a	n/a	n/a	n/a	n/a
308.0	1.5	12	late	stimulus	n/a	105.0	n/a	n/a	n/a
319.5	0.5	12	late	dm_task_pre	n/a	n/a	n/a	n/a	n/a
320.0	0.573785781976767	12	late	dm_task	0.573785781976767	n/a	21.0	-1.0	n/a
320.57378578197677	0.75	12	late	dm_task_post	n/a	n/a	n/a	n/a	n/a
325.5	0.5	12	late	em_task_pre	n/a	n/a	n/a	n/a	n/a
326.0	3.8431763169938016	12	late	em_task	n/a	n/a	n/a	n/a	107.655957073633
329.8431763169938	0.75	12	late	em_task_post	n/a	n/a	n/a	n/a	n/a
