onset	duration	trial	trial_type	event_type	response_time	value_stimulus	value_reference	response_decision	response_estimation
0.0	1.5	1	early	stimulus	n/a	0.0	n/a	n/a	n/a
5.5	0.5	1	early	dm_task_pre	n/a	n/a	n/a	n/a	n/a
6.0	0.99441323299834	1	early	dm_task	0.99441323299834	n/a	-4.0	-1.0	n/a
6.99441323299834	0.75	1	early	dm_task_post	n/a	n/a	n/a	n/a	n/a
17.5	0.5	1	early	em_task_pre	n/a	n/a	n/a	n/a	n/a
18.0	2.622751149989199	1	early	em_task	n/a	n/a	n/a	n/a	169.906847576149
20.6227511499892	0.75	1	early	em_task_post	n/a	n/a	n/a	n/a	n/a
28.0	1.5	2	early	stimulus	n/a	127.5	n/a	n/a	n/a
33.5	0.5	2	early	dm_task_pre	n/a	n/a	n/a	n/a	n/a
34.0	0.616316933999769	2	early	dm_task	0.616316933999769	n/a	-4.0	1.0	n/a
34.61631693399977	0.75	2	early	dm_task_post	n/a	n/a	n/a	n/a	n/a
45.5	0.5	2	early	em_task_pre	n/a	n/a	n/a	n/a	n/a
46.0	1.660531667992501	2	early	em_task	n/a	n/a	n/a	n/a	129.045108532313
47.6605316679925	0.75	2	early	em_task_post	n/a	n/a	n/a	n/a	n/a
56.0	1.5	3	late	stimulus	n/a	45.0	n/a	n/a	n/a
67.5	0.5	3	late	dm_task_pre	n/a	n/a	n/a	n/a	n/a
68.0	0.733965143997921	3	late	dm_task	0.733965143997921	n/a	4.0	-1.0	n/a
68.73396514399792	0.75	3	late	dm_task_post	n/a	n/a	n/a	n/a	n/a
73.5	0.5	3	late	em_task_pre	n/a	n/a	n/a	n/a	n/a
74.0	3.8306363769952014	3	late	em_task	n/a	n/a	n/a	n/a	55.0363807270748
77.8306363769952	0.75	3	late	em_task_post	n/a	n/a	n/a	n/a	n/a
84.0	1.5	4	early	stimulus	n/a	52.5	n/a	n/a	n/a
89.5	0.5	4	early	dm_task_pre	n/a	n/a	n/a	n/a	n/a
90.0	0.687033171998337	4	early	dm_task	0.687033171998337	n/a	4.0	-1.0	n/a
90.68703317199834	0.75	4	early	dm_task_post	n/a	n/a	n/a	n/a	n/a
101.5	0.5	4	early	em_task_pre	n/a	n/a	n/a	n/a	n/a
102.0	3.3515789689990996	4	early	em_task	n/a	n/a	n/a	n/a	50.0354402554626
105.35157896899909	0.75	4	early	em_task_post	n/a	n/a	n/a	n/a	n/a
112.0	1.5	5	early	stimulus	n/a	97.5	n/a	n/a	n/a
117.5	0.5	5	early	dm_task_pre	n/a	n/a	n/a	n/a	n/a
118.0	1.5	5	early	dm_task	1.58318614200107	n/a	0.0	-1.0	n/a
119.5	0.75	5	early	dm_task_post	n/a	n/a	n/a	n/a	n/a
129.5	0.5	5	early	em_task_pre	n/a	n/a	n/a	n/a	n/a
130.0	3.6974733999959	5	early	em_task	n/a	n/a	n/a	n/a	66.8352638949424
133.69747339999589	0.75	5	early	em_task_post	n/a	n/a	n/a	n/a	n/a
140.0	1.5	6	early	stimulus	n/a	7.5	n/a	n/a	n/a
145.5	0.5	6	early	dm_task_pre	n/a	n/a	n/a	n/a	n/a
146.0	0.896567750998656	6	early	dm_task	0.896567750998656	n/a	-21.0	1.0	n/a
146.89656775099866	0.75	6	early	dm_task_post	n/a	n/a	n/a	n/a	n/a
157.5	0.5	6	early	em_task_pre	n/a	n/a	n/a	n/a	n/a
158.0	3.3266615239990998	6	early	em_task	n/a	n/a	n/a	n/a	47.3837842623736
161.3266615239991	0.75	6	early	em_task_post	n/a	n/a	n/a	n/a	n/a
168.0	1.5	7	early	stimulus	n/a	67.5	n/a	n/a	n/a
173.5	0.5	7	early	dm_task_pre	n/a	n/a	n/a	n/a	n/a
174.0	1.05939679899893	7	early	dm_task	1.05939679899893	n/a	0.0	-1.0	n/a
175.05939679899893	0.75	7	early	dm_task_post	n/a	n/a	n/a	n/a	n/a
185.5	0.5	7	early	em_task_pre	n/a	n/a	n/a	n/a	n/a
186.0	3.6472280329907996	7	early	em_task	n/a	n/a	n/a	n/a	45.7026085133333
189.6472280329908	0.75	7	early	em_task_post	n/a	n/a	n/a	n/a	n/a
196.0	1.5	8	early	stimulus	n/a	135.0	n/a	n/a	n/a
201.5	0.5	8	early	dm_task_pre	n/a	n/a	n/a	n/a	n/a
202.0	1.5	8	early	dm_task	1.7284387559921	n/a	-4.0	1.0	n/a
203.5	0.75	8	early	dm_task_post	n/a	n/a	n/a	n/a	n/a
213.5	0.5	8	early	em_task_pre	n/a	n/a	n/a	n/a	n/a
214.0	4.003893183995402	8	early	em_task	n/a	n/a	n/a	n/a	30.9485964298795
218.0038931839954	0.75	8	early	em_task_post	n/a	n/a	n/a	n/a	n/a
224.0	1.5	9	early	stimulus	n/a	15.0	n/a	n/a	n/a
229.5	0.5	9	early	dm_task_pre	n/a	n/a	n/a	n/a	n/a
230.0	1.13584351800091	9	early	dm_task	1.13584351800091	n/a	0.0	1.0	n/a
231.1358435180009	0.75	9	early	dm_task_post	n/a	n/a	n/a	n/a	n/a
241.5	0.5	9	early	em_task_pre	n/a	n/a	n/a	n/a	n/a
242.0	3.6799445139914013	9	early	em_task	n/a	n/a	n/a	n/a	30.1595856515335
245.67994451399142	0.75	9	early	em_task_post	n/a	n/a	n/a	n/a	n/a
252.0	1.5	10	late	stimulus	n/a	22.5	n/a	n/a	n/a
263.5	0.5	10	late	dm_task_pre	n/a	n/a	n/a	n/a	n/a
264.0	1.5	10	late	dm_task	1.7469217399921	n/a	0.0	-1.0	n/a
265.5	0.75	10	late	dm_task_post	n/a	n/a	n/a	n/a	n/a
269.5	0.5	10	late	em_task_pre	n/a	n/a	n/a	n/a	n/a
270.0	3.6603698909894007	10	late	em_task	n/a	n/a	n/a	n/a	30.8817812764054
273.6603698909894	0.75	10	late	em_task_post	n/a	n/a	n/a	n/a	n/a
280.0	1.5	11	early	stimulus	n/a	172.5	n/a	n/a	n/a
285.5	0.5	11	early	dm_task_pre	n/a	n/a	n/a	n/a	n/a
286.0	1.5	11	early	dm_task	n/a	n/a	4.0	n/a	n/a
287.5	0.75	11	early	dm_task_post	n/a	n/a	n/a	n/a	n/a
297.5	0.5	11	early	em_task_pre	n/a	n/a	n/a	n/a	n/a
298.0	4.4978643969953005	11	early	em_task	n/a	n/a	n/a	n/a	33.3655973936603
302.4978643969953	0.75	11	early	em_task_post	n/a	n/a	n/a	n/a	n/a
308.0	1.5	12	late	stimulus	n/a	120.0	n/a	n/a	n/a
319.5	0.5	12	late	dm_task_pre	n/a	n/a	n/a	n/a	n/a
320.0	1.10437458399974	12	late	dm_task	1.10437458399974	n/a	-21.0	1.0	n/a
321.10437458399974	0.75	12	late	dm_task_post	n/a	n/a	n/a	n/a	n/a
325.5	0.5	12	late	em_task_pre	n/a	n/a	n/a	n/a	n/a
326.0	2.6526317099923986	12	late	em_task	n/a	n/a	n/a	n/a	135.585810212433
328.6526317099924	0.75	12	late	em_task_post	n/a	n/a	n/a	n/a	n/a
