onset	duration	trial	trial_type	event_type	response_time	value_stimulus	value_reference	response_decision	response_estimation
0.0	1.5	1	late	stimulus	n/a	165.0	n/a	n/a	n/a
11.5	0.5	1	late	dm_task_pre	n/a	n/a	n/a	n/a	n/a
12.0	0.716278393985704	1	late	dm_task	0.716278393985704	n/a	0.0	-1.0	n/a
12.716278393985704	0.75	1	late	dm_task_post	n/a	n/a	n/a	n/a	n/a
17.5	0.5	1	late	em_task_pre	n/a	n/a	n/a	n/a	n/a
18.0	4.404510056017902	1	late	em_task	n/a	n/a	n/a	n/a	153.190319843155
22.4045100560179	0.75	1	late	em_task_post	n/a	n/a	n/a	n/a	n/a
28.0	1.5	2	late	stimulus	n/a	120.0	n/a	n/a	n/a
39.5	0.5	2	late	dm_task_pre	n/a	n/a	n/a	n/a	n/a
40.0	0.793970943021122	2	late	dm_task	0.793970943021122	n/a	0.0	1.0	n/a
40.79397094302112	0.75	2	late	dm_task_post	n/a	n/a	n/a	n/a	n/a
45.5	0.5	2	late	em_task_pre	n/a	n/a	n/a	n/a	n/a
46.0	2.6965843340149007	2	late	em_task	n/a	n/a	n/a	n/a	121.853934741612
48.6965843340149	0.75	2	late	em_task_post	n/a	n/a	n/a	n/a	n/a
56.0	1.5	3	late	stimulus	n/a	22.5	n/a	n/a	n/a
67.5	0.5	3	late	dm_task_pre	n/a	n/a	n/a	n/a	n/a
68.0	0.569583177973982	3	late	dm_task	0.569583177973982	n/a	0.0	1.0	n/a
68.56958317797398	0.75	3	late	dm_task_post	n/a	n/a	n/a	n/a	n/a
73.5	0.5	3	late	em_task_pre	n/a	n/a	n/a	n/a	n/a
74.0	2.2546200939687004	3	late	em_task	n/a	n/a	n/a	n/a	32.7776192755464
76.2546200939687	0.75	3	late	em_task_post	n/a	n/a	n/a	n/a	n/a
84.0	1.5	4	early	stimulus	n/a	7.5	n/a	n/a	n/a
89.5	0.5	4	early	dm_task_pre	n/a	n/a	n/a	n/a	n/a
90.0	0.604978999006562	4	early	dm_task	0.604978999006562	n/a	4.0	1.0	n/a
90.60497899900656	0.75	4	early	dm_task_post	n/a	n/a	n/a	n/a	n/a
101.5	0.5	4	early	em_task_pre	n/a	n/a	n/a	n/a	n/a
102.0	2.3142448589787996	4	early	em_task	n/a	n/a	n/a	n/a	19.8243129598189
104.3142448589788	0.75	4	early	em_task_post	n/a	n/a	n/a	n/a	n/a
112.0	1.5	5	late	stimulus	n/a	37.5	n/a	n/a	n/a
123.5	0.5	5	late	dm_task_pre	n/a	n/a	n/a	n/a	n/a
124.0	0.537085635005496	5	late	dm_task	0.537085635005496	n/a	-21.0	1.0	n/a
124.5370856350055	0.75	5	late	dm_task_post	n/a	n/a	n/a	n/a	n/a
129.5	0.5	5	late	em_task_pre	n/a	n/a	n/a	n/a	n/a
130.0	3.3076727250008986	5	late	em_task	n/a	n/a	n/a	n/a	38.5540543986245
133.30767272500088	0.75	5	late	em_task_post	n/a	n/a	n/a	n/a	n/a
140.0	1.5	6	late	stimulus	n/a	82.5	n/a	n/a	n/a
151.5	0.5	6	late	dm_task_pre	n/a	n/a	n/a	n/a	n/a
152.0	0.846388400997967	6	late	dm_task	0.846388400997967	n/a	-21.0	-1.0	n/a
152.84638840099797	0.75	6	late	dm_task_post	n/a	n/a	n/a	n/a	n/a
157.5	0.5	6	late	em_task_pre	n/a	n/a	n/a	n/a	n/a
158.0	2.3657591809751004	6	late	em_task	n/a	n/a	n/a	n/a	57.2897897517275
160.3657591809751	0.75	6	late	em_task_post	n/a	n/a	n/a	n/a	n/a
168.0	1.5	7	early	stimulus	n/a	75.0	n/a	n/a	n/a
173.5	0.5	7	early	dm_task_pre	n/a	n/a	n/a	n/a	n/a
174.0	0.587116135982797	7	early	dm_task	0.587116135982797	n/a	0.0	-1.0	n/a
174.5871161359828	0.75	7	early	dm_task_post	n/a	n/a	n/a	n/a	n/a
185.5	0.5	7	early	em_task_pre	n/a	n/a	n/a	n/a	n/a
186.0	1.374077016022099	7	early	em_task	n/a	n/a	n/a	n/a	63.054618264752
187.3740770160221	0.75	7	early	em_task_post	n/a	n/a	n/a	n/a	n/a
196.0	1.5	8	early	stimulus	n/a	67.5	n/a	n/a	n/a
201.5	0.5	8	early	dm_task_pre	n/a	n/a	n/a	n/a	n/a
202.0	0.445750601007603	8	early	dm_task	0.445750601007603	n/a	4.0	-1.0	n/a
202.4457506010076	0.75	8	early	dm_task_post	n/a	n/a	n/a	n/a	n/a
213.5	0.5	8	early	em_task_pre	n/a	n/a	n/a	n/a	n/a
214.0	1.7166445159819013	8	early	em_task	n/a	n/a	n/a	n/a	49.9372990475466
215.7166445159819	0.75	8	early	em_task_post	n/a	n/a	n/a	n/a	n/a
224.0	1.5	9	early	stimulus	n/a	0.0	n/a	n/a	n/a
229.5	0.5	9	early	dm_task_pre	n/a	n/a	n/a	n/a	n/a
230.0	0.622305120981764	9	early	dm_task	0.622305120981764	n/a	-4.0	1.0	n/a
230.62230512098176	0.75	9	early	dm_task_post	n/a	n/a	n/a	n/a	n/a
241.5	0.5	9	early	em_task_pre	n/a	n/a	n/a	n/a	n/a
242.0	3.475359080010101	9	early	em_task	n/a	n/a	n/a	n/a	1.1920820337553
245.4753590800101	0.75	9	early	em_task_post	n/a	n/a	n/a	n/a	n/a
252.0	1.5	10	late	stimulus	n/a	157.5	n/a	n/a	n/a
263.5	0.5	10	late	dm_task_pre	n/a	n/a	n/a	n/a	n/a
264.0	0.531937331019435	10	late	dm_task	0.531937331019435	n/a	4.0	-1.0	n/a
264.53193733101944	0.75	10	late	dm_task_post	n/a	n/a	n/a	n/a	n/a
269.5	0.5	10	late	em_task_pre	n/a	n/a	n/a	n/a	n/a
270.0	2.567655708000501	10	late	em_task	n/a	n/a	n/a	n/a	142.458855518103
272.56765570800053	0.75	10	late	em_task_post	n/a	n/a	n/a	n/a	n/a
280.0	1.5	11	late	stimulus	n/a	97.5	n/a	n/a	n/a
291.5	0.5	11	late	dm_task_pre	n/a	n/a	n/a	n/a	n/a
292.0	0.492495138023514	11	late	dm_task	0.492495138023514	n/a	0.0	1.0	n/a
292.4924951380235	0.75	11	late	dm_task_post	n/a	n/a	n/a	n/a	n/a
297.5	0.5	11	late	em_task_pre	n/a	n/a	n/a	n/a	n/a
298.0	1.7616678589838983	11	late	em_task	n/a	n/a	n/a	n/a	110.455420615429
299.7616678589839	0.75	11	late	em_task_post	n/a	n/a	n/a	n/a	n/a
308.0	1.5	12	early	stimulus	n/a	30.0	n/a	n/a	n/a
313.5	0.5	12	early	dm_task_pre	n/a	n/a	n/a	n/a	n/a
314.0	0.481383238977287	12	early	dm_task	0.481383238977287	n/a	-4.0	1.0	n/a
314.4813832389773	0.75	12	early	dm_task_post	n/a	n/a	n/a	n/a	n/a
325.5	0.5	12	early	em_task_pre	n/a	n/a	n/a	n/a	n/a
326.0	1.6872066869983016	12	early	em_task	n/a	n/a	n/a	n/a	37.8762934047365
327.6872066869983	0.75	12	early	em_task_post	n/a	n/a	n/a	n/a	n/a
