onset	duration	trial	trial_type	event_type	response_time	value_stimulus	value_reference	response_decision	response_estimation
0.0	1.5	1	early	stimulus	n/a	90.0	n/a	n/a	n/a
5.5	0.5	1	early	dm_task_pre	n/a	n/a	n/a	n/a	n/a
6.0	0.630032395943999	1	early	dm_task	0.630032395943999	n/a	-4.0	1.0	n/a
6.630032395943999	0.75	1	early	dm_task_post	n/a	n/a	n/a	n/a	n/a
17.5	0.5	1	early	em_task_pre	n/a	n/a	n/a	n/a	n/a
18.0	3.1423550429753995	1	early	em_task	n/a	n/a	n/a	n/a	94.8228693645007
21.1423550429754	0.75	1	early	em_task_post	n/a	n/a	n/a	n/a	n/a
28.0	1.5	2	late	stimulus	n/a	15.0	n/a	n/a	n/a
39.5	0.5	2	late	dm_task_pre	n/a	n/a	n/a	n/a	n/a
40.0	0.65197251085192	2	late	dm_task	0.65197251085192	n/a	4.0	1.0	n/a
40.65197251085192	0.75	2	late	dm_task_post	n/a	n/a	n/a	n/a	n/a
45.5	0.5	2	late	em_task_pre	n/a	n/a	n/a	n/a	n/a
46.0	2.799398743547499	2	late	em_task	n/a	n/a	n/a	n/a	31.7111651747033
48.7993987435475	0.75	2	late	em_task_post	n/a	n/a	n/a	n/a	n/a
56.0	1.5	3	early	stimulus	n/a	105.0	n/a	n/a	n/a
61.5	0.5	3	early	dm_task_pre	n/a	n/a	n/a	n/a	n/a
62.0	0.576408590655774	3	early	dm_task	0.576408590655774	n/a	-21.0	1.0	n/a
62.576408590655774	0.75	3	early	dm_task_post	n/a	n/a	n/a	n/a	n/a
73.5	0.5	3	early	em_task_pre	n/a	n/a	n/a	n/a	n/a
74.0	2.7222710377537	3	early	em_task	n/a	n/a	n/a	n/a	112.99930713095
76.7222710377537	0.75	3	early	em_task_post	n/a	n/a	n/a	n/a	n/a
84.0	1.5	4	late	stimulus	n/a	112.5	n/a	n/a	n/a
95.5	0.5	4	late	dm_task_pre	n/a	n/a	n/a	n/a	n/a
96.0	0.615067664999515	4	late	dm_task	0.615067664999515	n/a	-21.0	1.0	n/a
96.61506766499951	0.75	4	late	dm_task_post	n/a	n/a	n/a	n/a	n/a
101.5	0.5	4	late	em_task_pre	n/a	n/a	n/a	n/a	n/a
102.0	2.3134152288549004	4	late	em_task	n/a	n/a	n/a	n/a	124.969699616388
104.3134152288549	0.75	4	late	em_task_post	n/a	n/a	n/a	n/a	n/a
112.0	1.5	5	late	stimulus	n/a	135.0	n/a	n/a	n/a
123.5	0.5	5	late	dm_task_pre	n/a	n/a	n/a	n/a	n/a
124.0	1.5	5	late	dm_task	n/a	n/a	4.0	n/a	n/a
125.5	0.75	5	late	dm_task_post	n/a	n/a	n/a	n/a	n/a
129.5	0.5	5	late	em_task_pre	n/a	n/a	n/a	n/a	n/a
130.0	1.835437148809401	5	late	em_task	n/a	n/a	n/a	n/a	137.311037400674
131.8354371488094	0.75	5	late	em_task_post	n/a	n/a	n/a	n/a	n/a
140.0	1.5	6	late	stimulus	n/a	60.0	n/a	n/a	n/a
151.5	0.5	6	late	dm_task_pre	n/a	n/a	n/a	n/a	n/a
152.0	0.827490056864917	6	late	dm_task	0.827490056864917	n/a	4.0	1.0	n/a
152.82749005686492	0.75	6	late	dm_task_post	n/a	n/a	n/a	n/a	n/a
157.5	0.5	6	late	em_task_pre	n/a	n/a	n/a	n/a	n/a
158.0	1.975123665761199	6	late	em_task	n/a	n/a	n/a	n/a	61.6826257889308
159.9751236657612	0.75	6	late	em_task_post	n/a	n/a	n/a	n/a	n/a
168.0	1.5	7	late	stimulus	n/a	150.0	n/a	n/a	n/a
179.5	0.5	7	late	dm_task_pre	n/a	n/a	n/a	n/a	n/a
180.0	0.550159089732915	7	late	dm_task	0.550159089732915	n/a	-21.0	1.0	n/a
180.55015908973292	0.75	7	late	dm_task_post	n/a	n/a	n/a	n/a	n/a
185.5	0.5	7	late	em_task_pre	n/a	n/a	n/a	n/a	n/a
186.0	2.131583666894599	7	late	em_task	n/a	n/a	n/a	n/a	142.596049302929
188.13158366689458	0.75	7	late	em_task_post	n/a	n/a	n/a	n/a	n/a
196.0	1.5	8	early	stimulus	n/a	30.0	n/a	n/a	n/a
201.5	0.5	8	early	dm_task_pre	n/a	n/a	n/a	n/a	n/a
202.0	0.59342876682058	8	early	dm_task	0.59342876682058	n/a	0.0	1.0	n/a
202.59342876682058	0.75	8	early	dm_task_post	n/a	n/a	n/a	n/a	n/a
213.5	0.5	8	early	em_task_pre	n/a	n/a	n/a	n/a	n/a
214.0	3.0720652248710003	8	early	em_task	n/a	n/a	n/a	n/a	31.3694536480979
217.072065224871	0.75	8	early	em_task_post	n/a	n/a	n/a	n/a	n/a
224.0	1.5	9	late	stimulus	n/a	157.5	n/a	n/a	n/a
235.5	0.5	9	late	dm_task_pre	n/a	n/a	n/a	n/a	n/a
236.0	0.931342005729675	9	late	dm_task	0.931342005729675	n/a	0.0	-1.0	n/a
236.93134200572968	0.75	9	late	dm_task_post	n/a	n/a	n/a	n/a	n/a
241.5	0.5	9	late	em_task_pre	n/a	n/a	n/a	n/a	n/a
242.0	2.244739090558099	9	late	em_task	n/a	n/a	n/a	n/a	146.228451523039
244.24473909055808	0.75	9	late	em_task_post	n/a	n/a	n/a	n/a	n/a
252.0	1.5	10	early	stimulus	n/a	7.5	n/a	n/a	n/a
257.5	0.5	10	early	dm_task_pre	n/a	n/a	n/a	n/a	n/a
258.0	0.739001299720258	10	early	dm_task	0.739001299720258	n/a	-4.0	-1.0	n/a
258.73900129972026	0.75	10	early	dm_task_post	n/a	n/a	n/a	n/a	n/a
269.5	0.5	10	early	em_task_pre	n/a	n/a	n/a	n/a	n/a
270.0	2.7342123039998008	10	early	em_task	n/a	n/a	n/a	n/a	20.3413095134141
272.7342123039998	0.75	10	early	em_task_post	n/a	n/a	n/a	n/a	n/a
280.0	1.5	11	early	stimulus	n/a	120.0	n/a	n/a	n/a
285.5	0.5	11	early	dm_task_pre	n/a	n/a	n/a	n/a	n/a
286.0	1.27761648688465	11	early	dm_task	1.27761648688465	n/a	0.0	1.0	n/a
287.27761648688465	0.75	11	early	dm_task_post	n/a	n/a	n/a	n/a	n/a
297.5	0.5	11	early	em_task_pre	n/a	n/a	n/a	n/a	n/a
298.0	2.2905690767802014	11	early	em_task	n/a	n/a	n/a	n/a	119.237807445823
300.29056907678023	0.75	11	early	em_task_post	n/a	n/a	n/a	n/a	n/a
308.0	1.5	12	late	stimulus	n/a	75.0	n/a	n/a	n/a
319.5	0.5	12	late	dm_task_pre	n/a	n/a	n/a	n/a	n/a
320.0	0.750059994868934	12	late	dm_task	0.750059994868934	n/a	4.0	-1.0	n/a
320.75005999486893	0.75	12	late	dm_task_post	n/a	n/a	n/a	n/a	n/a
325.5	0.5	12	late	em_task_pre	n/a	n/a	n/a	n/a	n/a
326.0	2.5642647845671007	12	late	em_task	n/a	n/a	n/a	n/a	63.552294331044
328.5642647845671	0.75	12	late	em_task_post	n/a	n/a	n/a	n/a	n/a
