onset	duration	trial	trial_type	event_type	response_time	value_stimulus	value_reference	response_decision	response_estimation
0.0	1.5	1	late	stimulus	n/a	157.5	n/a	n/a	n/a
11.5	0.5	1	late	dm_task_pre	n/a	n/a	n/a	n/a	n/a
12.0	0.955949625000358	1	late	dm_task	0.955949625000358	n/a	-21.0	1.0	n/a
12.955949625000358	0.75	1	late	dm_task_post	n/a	n/a	n/a	n/a	n/a
17.5	0.5	1	late	em_task_pre	n/a	n/a	n/a	n/a	n/a
18.0	2.575255989009701	1	late	em_task	n/a	n/a	n/a	n/a	148.529876960922
20.5752559890097	0.75	1	late	em_task_post	n/a	n/a	n/a	n/a	n/a
28.0	1.5	2	late	stimulus	n/a	7.5	n/a	n/a	n/a
39.5	0.5	2	late	dm_task_pre	n/a	n/a	n/a	n/a	n/a
40.0	0.88140197499888	2	late	dm_task	0.88140197499888	n/a	-21.0	1.0	n/a
40.88140197499888	0.75	2	late	dm_task_post	n/a	n/a	n/a	n/a	n/a
45.5	0.5	2	late	em_task_pre	n/a	n/a	n/a	n/a	n/a
46.0	2.283647101023199	2	late	em_task	n/a	n/a	n/a	n/a	21.3196956204332
48.2836471010232	0.75	2	late	em_task_post	n/a	n/a	n/a	n/a	n/a
56.0	1.5	3	late	stimulus	n/a	82.5	n/a	n/a	n/a
67.5	0.5	3	late	dm_task_pre	n/a	n/a	n/a	n/a	n/a
68.0	0.90771435102215	3	late	dm_task	0.90771435102215	n/a	-4.0	-1.0	n/a
68.90771435102215	0.75	3	late	dm_task_post	n/a	n/a	n/a	n/a	n/a
73.5	0.5	3	late	em_task_pre	n/a	n/a	n/a	n/a	n/a
74.0	2.3433137560204997	3	late	em_task	n/a	n/a	n/a	n/a	74.8219317102826
76.3433137560205	0.75	3	late	em_task_post	n/a	n/a	n/a	n/a	n/a
84.0	1.5	4	early	stimulus	n/a	15.0	n/a	n/a	n/a
89.5	0.5	4	early	dm_task_pre	n/a	n/a	n/a	n/a	n/a
90.0	0.630911593005294	4	early	dm_task	0.630911593005294	n/a	21.0	-1.0	n/a
90.6309115930053	0.75	4	early	dm_task_post	n/a	n/a	n/a	n/a	n/a
101.5	0.5	4	early	em_task_pre	n/a	n/a	n/a	n/a	n/a
102.0	2.3518275970127007	4	early	em_task	n/a	n/a	n/a	n/a	22.3809910566063
104.3518275970127	0.75	4	early	em_task_post	n/a	n/a	n/a	n/a	n/a
112.0	1.5	5	early	stimulus	n/a	127.5	n/a	n/a	n/a
117.5	0.5	5	early	dm_task_pre	n/a	n/a	n/a	n/a	n/a
118.0	0.656454019015655	5	early	dm_task	0.656454019015655	n/a	-21.0	1.0	n/a
118.65645401901565	0.75	5	early	dm_task_post	n/a	n/a	n/a	n/a	n/a
129.5	0.5	5	early	em_task_pre	n/a	n/a	n/a	n/a	n/a
130.0	3.227463447023201	5	early	em_task	n/a	n/a	n/a	n/a	130.413418175846
133.2274634470232	0.75	5	early	em_task_post	n/a	n/a	n/a	n/a	n/a
140.0	1.5	6	late	stimulus	n/a	75.0	n/a	n/a	n/a
151.5	0.5	6	late	dm_task_pre	n/a	n/a	n/a	n/a	n/a
152.0	0.617609952023486	6	late	dm_task	0.617609952023486	n/a	21.0	-1.0	n/a
152.61760995202349	0.75	6	late	dm_task_post	n/a	n/a	n/a	n/a	n/a
157.5	0.5	6	late	em_task_pre	n/a	n/a	n/a	n/a	n/a
158.0	3.0057373940071983	6	late	em_task	n/a	n/a	n/a	n/a	67.9406434627341
161.0057373940072	0.75	6	late	em_task_post	n/a	n/a	n/a	n/a	n/a
168.0	1.5	7	late	stimulus	n/a	172.5	n/a	n/a	n/a
179.5	0.5	7	late	dm_task_pre	n/a	n/a	n/a	n/a	n/a
180.0	0.842632771003991	7	late	dm_task	0.842632771003991	n/a	-4.0	-1.0	n/a
180.842632771004	0.75	7	late	dm_task_post	n/a	n/a	n/a	n/a	n/a
185.5	0.5	7	late	em_task_pre	n/a	n/a	n/a	n/a	n/a
186.0	3.7301496160216985	7	late	em_task	n/a	n/a	n/a	n/a	160.455880489021
189.7301496160217	0.75	7	late	em_task_post	n/a	n/a	n/a	n/a	n/a
196.0	1.5	8	early	stimulus	n/a	135.0	n/a	n/a	n/a
201.5	0.5	8	early	dm_task_pre	n/a	n/a	n/a	n/a	n/a
202.0	1.5	8	early	dm_task	1.55137170202215	n/a	4.0	-1.0	n/a
203.5	0.75	8	early	dm_task_post	n/a	n/a	n/a	n/a	n/a
213.5	0.5	8	early	em_task_pre	n/a	n/a	n/a	n/a	n/a
214.0	2.689001388003799	8	early	em_task	n/a	n/a	n/a	n/a	138.929028899149
216.6890013880038	0.75	8	early	em_task_post	n/a	n/a	n/a	n/a	n/a
224.0	1.5	9	early	stimulus	n/a	105.0	n/a	n/a	n/a
229.5	0.5	9	early	dm_task_pre	n/a	n/a	n/a	n/a	n/a
230.0	0.943103042023722	9	early	dm_task	0.943103042023722	n/a	21.0	-1.0	n/a
230.94310304202372	0.75	9	early	dm_task_post	n/a	n/a	n/a	n/a	n/a
241.5	0.5	9	early	em_task_pre	n/a	n/a	n/a	n/a	n/a
242.0	3.031962459004699	9	early	em_task	n/a	n/a	n/a	n/a	116.138500191618
245.0319624590047	0.75	9	early	em_task_post	n/a	n/a	n/a	n/a	n/a
252.0	1.5	10	late	stimulus	n/a	22.5	n/a	n/a	n/a
263.5	0.5	10	late	dm_task_pre	n/a	n/a	n/a	n/a	n/a
264.0	0.737464446021477	10	late	dm_task	0.737464446021477	n/a	21.0	-1.0	n/a
264.7374644460215	0.75	10	late	dm_task_post	n/a	n/a	n/a	n/a	n/a
269.5	0.5	10	late	em_task_pre	n/a	n/a	n/a	n/a	n/a
270.0	2.8412345210089995	10	late	em_task	n/a	n/a	n/a	n/a	22.6435109363573
272.841234521009	0.75	10	late	em_task_post	n/a	n/a	n/a	n/a	n/a
280.0	1.5	11	late	stimulus	n/a	45.0	n/a	n/a	n/a
291.5	0.5	11	late	dm_task_pre	n/a	n/a	n/a	n/a	n/a
292.0	1.06418348901207	11	late	dm_task	1.06418348901207	n/a	-4.0	-1.0	n/a
293.06418348901207	0.75	11	late	dm_task_post	n/a	n/a	n/a	n/a	n/a
297.5	0.5	11	late	em_task_pre	n/a	n/a	n/a	n/a	n/a
298.0	3.1667556450119996	11	late	em_task	n/a	n/a	n/a	n/a	39.2691485410305
301.166755645012	0.75	11	late	em_task_post	n/a	n/a	n/a	n/a	n/a
308.0	1.5	12	late	stimulus	n/a	90.0	n/a	n/a	n/a
319.5	0.5	12	late	dm_task_pre	n/a	n/a	n/a	n/a	n/a
320.0	1.28967894002562	12	late	dm_task	1.28967894002562	n/a	-4.0	-1.0	n/a
321.2896789400256	0.75	12	late	dm_task_post	n/a	n/a	n/a	n/a	n/a
325.5	0.5	12	late	em_task_pre	n/a	n/a	n/a	n/a	n/a
326.0	3.525613878009601	12	late	em_task	n/a	n/a	n/a	n/a	81.8977669975649
329.5256138780096	0.75	12	late	em_task_post	n/a	n/a	n/a	n/a	n/a
