onset	duration	trial	trial_type	event_type	response_time	value_stimulus	value_reference	response_decision	response_estimation
0.0	1.5	1	late	stimulus	n/a	157.5	n/a	n/a	n/a
11.5	0.5	1	late	dm_task_pre	n/a	n/a	n/a	n/a	n/a
12.0	0.626930592000463	1	late	dm_task	0.626930592000463	n/a	-4.0	-1.0	n/a
12.626930592000463	0.75	1	late	dm_task_post	n/a	n/a	n/a	n/a	n/a
17.5	0.5	1	late	em_task_pre	n/a	n/a	n/a	n/a	n/a
18.0	1.8728363890004012	1	late	em_task	n/a	n/a	n/a	n/a	141.131290179439
19.8728363890004	0.75	1	late	em_task_post	n/a	n/a	n/a	n/a	n/a
28.0	1.5	2	late	stimulus	n/a	150.0	n/a	n/a	n/a
39.5	0.5	2	late	dm_task_pre	n/a	n/a	n/a	n/a	n/a
40.0	0.533457425000051	2	late	dm_task	0.533457425000051	n/a	4.0	-1.0	n/a
40.53345742500005	0.75	2	late	dm_task_post	n/a	n/a	n/a	n/a	n/a
45.5	0.5	2	late	em_task_pre	n/a	n/a	n/a	n/a	n/a
46.0	3.2460005170004997	2	late	em_task	n/a	n/a	n/a	n/a	153.810944552646
49.246000517000496	0.75	2	late	em_task_post	n/a	n/a	n/a	n/a	n/a
56.0	1.5	3	late	stimulus	n/a	90.0	n/a	n/a	n/a
67.5	0.5	3	late	dm_task_pre	n/a	n/a	n/a	n/a	n/a
68.0	0.522722534000422	3	late	dm_task	0.522722534000422	n/a	-21.0	1.0	n/a
68.52272253400042	0.75	3	late	dm_task_post	n/a	n/a	n/a	n/a	n/a
73.5	0.5	3	late	em_task_pre	n/a	n/a	n/a	n/a	n/a
74.0	2.5871416529999003	3	late	em_task	n/a	n/a	n/a	n/a	84.3251681711418
76.5871416529999	0.75	3	late	em_task_post	n/a	n/a	n/a	n/a	n/a
84.0	1.5	4	early	stimulus	n/a	142.5	n/a	n/a	n/a
89.5	0.5	4	early	dm_task_pre	n/a	n/a	n/a	n/a	n/a
90.0	0.914776333000191	4	early	dm_task	0.914776333000191	n/a	-4.0	-1.0	n/a
90.91477633300019	0.75	4	early	dm_task_post	n/a	n/a	n/a	n/a	n/a
101.5	0.5	4	early	em_task_pre	n/a	n/a	n/a	n/a	n/a
102.0	1.8599901080005985	4	early	em_task	n/a	n/a	n/a	n/a	156.431940660451
103.8599901080006	0.75	4	early	em_task_post	n/a	n/a	n/a	n/a	n/a
112.0	1.5	5	late	stimulus	n/a	127.5	n/a	n/a	n/a
123.5	0.5	5	late	dm_task_pre	n/a	n/a	n/a	n/a	n/a
124.0	0.568638560000181	5	late	dm_task	0.568638560000181	n/a	0.0	-1.0	n/a
124.56863856000018	0.75	5	late	dm_task_post	n/a	n/a	n/a	n/a	n/a
129.5	0.5	5	late	em_task_pre	n/a	n/a	n/a	n/a	n/a
130.0	2.682432307999999	5	late	em_task	n/a	n/a	n/a	n/a	127.497126601295
132.682432308	0.75	5	late	em_task_post	n/a	n/a	n/a	n/a	n/a
140.0	1.5	6	early	stimulus	n/a	112.5	n/a	n/a	n/a
145.5	0.5	6	early	dm_task_pre	n/a	n/a	n/a	n/a	n/a
146.0	0.609824687000582	6	early	dm_task	0.609824687000582	n/a	-4.0	-1.0	n/a
146.60982468700058	0.75	6	early	dm_task_post	n/a	n/a	n/a	n/a	n/a
157.5	0.5	6	early	em_task_pre	n/a	n/a	n/a	n/a	n/a
158.0	1.8730558450006	6	early	em_task	n/a	n/a	n/a	n/a	106.965967989264
159.8730558450006	0.75	6	early	em_task_post	n/a	n/a	n/a	n/a	n/a
168.0	1.5	7	late	stimulus	n/a	52.5	n/a	n/a	n/a
179.5	0.5	7	late	dm_task_pre	n/a	n/a	n/a	n/a	n/a
180.0	0.565138752000166	7	late	dm_task	0.565138752000166	n/a	0.0	-1.0	n/a
180.56513875200017	0.75	7	late	dm_task_post	n/a	n/a	n/a	n/a	n/a
185.5	0.5	7	late	em_task_pre	n/a	n/a	n/a	n/a	n/a
186.0	1.779045093000601	7	late	em_task	n/a	n/a	n/a	n/a	42.9704661603745
187.7790450930006	0.75	7	late	em_task_post	n/a	n/a	n/a	n/a	n/a
196.0	1.5	8	early	stimulus	n/a	15.0	n/a	n/a	n/a
201.5	0.5	8	early	dm_task_pre	n/a	n/a	n/a	n/a	n/a
202.0	0.523922028000015	8	early	dm_task	0.523922028000015	n/a	21.0	-1.0	n/a
202.52392202800002	0.75	8	early	dm_task_post	n/a	n/a	n/a	n/a	n/a
213.5	0.5	8	early	em_task_pre	n/a	n/a	n/a	n/a	n/a
214.0	2.6862636800006	8	early	em_task	n/a	n/a	n/a	n/a	20.3990825628314
216.6862636800006	0.75	8	early	em_task_post	n/a	n/a	n/a	n/a	n/a
224.0	1.5	9	early	stimulus	n/a	120.0	n/a	n/a	n/a
229.5	0.5	9	early	dm_task_pre	n/a	n/a	n/a	n/a	n/a
230.0	0.498161104000246	9	early	dm_task	0.498161104000246	n/a	-21.0	1.0	n/a
230.49816110400025	0.75	9	early	dm_task_post	n/a	n/a	n/a	n/a	n/a
241.5	0.5	9	early	em_task_pre	n/a	n/a	n/a	n/a	n/a
242.0	2.7597637210000983	9	early	em_task	n/a	n/a	n/a	n/a	122.508096130904
244.7597637210001	0.75	9	early	em_task_post	n/a	n/a	n/a	n/a	n/a
252.0	1.5	10	early	stimulus	n/a	172.5	n/a	n/a	n/a
257.5	0.5	10	early	dm_task_pre	n/a	n/a	n/a	n/a	n/a
258.0	0.871437767000316	10	early	dm_task	0.871437767000316	n/a	21.0	-1.0	n/a
258.8714377670003	0.75	10	early	dm_task_post	n/a	n/a	n/a	n/a	n/a
269.5	0.5	10	early	em_task_pre	n/a	n/a	n/a	n/a	n/a
270.0	1.4164665770003992	10	early	em_task	n/a	n/a	n/a	n/a	174.051914445247
271.4164665770004	0.75	10	early	em_task_post	n/a	n/a	n/a	n/a	n/a
280.0	1.5	11	late	stimulus	n/a	75.0	n/a	n/a	n/a
291.5	0.5	11	late	dm_task_pre	n/a	n/a	n/a	n/a	n/a
292.0	0.607339346000117	11	late	dm_task	0.607339346000117	n/a	-21.0	1.0	n/a
292.6073393460001	0.75	11	late	dm_task_post	n/a	n/a	n/a	n/a	n/a
297.5	0.5	11	late	em_task_pre	n/a	n/a	n/a	n/a	n/a
298.0	1.9382997700003983	11	late	em_task	n/a	n/a	n/a	n/a	72.6844250479368
299.9382997700004	0.75	11	late	em_task_post	n/a	n/a	n/a	n/a	n/a
308.0	1.5	12	early	stimulus	n/a	67.5	n/a	n/a	n/a
313.5	0.5	12	early	dm_task_pre	n/a	n/a	n/a	n/a	n/a
314.0	0.884060174000297	12	early	dm_task	0.884060174000297	n/a	0.0	-1.0	n/a
314.8840601740003	0.75	12	early	dm_task_post	n/a	n/a	n/a	n/a	n/a
325.5	0.5	12	early	em_task_pre	n/a	n/a	n/a	n/a	n/a
326.0	2.3122411520008015	12	early	em_task	n/a	n/a	n/a	n/a	69.3515023539078
328.3122411520008	0.75	12	early	em_task_post	n/a	n/a	n/a	n/a	n/a
