onset	duration	trial	trial_type	event_type	response_time	value_stimulus	value_reference	response_decision	response_estimation
0.0	1.5	1	early	stimulus	n/a	127.5	n/a	n/a	n/a
5.5	0.5	1	early	dm_task_pre	n/a	n/a	n/a	n/a	n/a
6.0	0.787286666999989	1	early	dm_task	0.787286666999989	n/a	-4.0	-1.0	n/a
6.787286666999989	0.75	1	early	dm_task_post	n/a	n/a	n/a	n/a	n/a
17.5	0.5	1	early	em_task_pre	n/a	n/a	n/a	n/a	n/a
18.0	2.898719129999801	1	early	em_task	n/a	n/a	n/a	n/a	140.534069843155
20.8987191299998	0.75	1	early	em_task_post	n/a	n/a	n/a	n/a	n/a
28.0	1.5	2	early	stimulus	n/a	7.5	n/a	n/a	n/a
33.5	0.5	2	early	dm_task_pre	n/a	n/a	n/a	n/a	n/a
34.0	0.826953070999934	2	early	dm_task	0.826953070999934	n/a	4.0	1.0	n/a
34.826953070999934	0.75	2	early	dm_task_post	n/a	n/a	n/a	n/a	n/a
45.5	0.5	2	early	em_task_pre	n/a	n/a	n/a	n/a	n/a
46.0	2.2564464439996996	2	early	em_task	n/a	n/a	n/a	n/a	17.088309741612
48.2564464439997	0.75	2	early	em_task_post	n/a	n/a	n/a	n/a	n/a
56.0	1.5	3	early	stimulus	n/a	22.5	n/a	n/a	n/a
61.5	0.5	3	early	dm_task_pre	n/a	n/a	n/a	n/a	n/a
62.0	0.434548880999955	3	early	dm_task	0.434548880999955	n/a	-21.0	1.0	n/a
62.434548880999955	0.75	3	early	dm_task_post	n/a	n/a	n/a	n/a	n/a
73.5	0.5	3	early	em_task_pre	n/a	n/a	n/a	n/a	n/a
74.0	2.362895106	3	early	em_task	n/a	n/a	n/a	n/a	22.2307442755464
76.362895106	0.75	3	early	em_task_post	n/a	n/a	n/a	n/a	n/a
84.0	1.5	4	early	stimulus	n/a	0.0	n/a	n/a	n/a
89.5	0.5	4	early	dm_task_pre	n/a	n/a	n/a	n/a	n/a
90.0	0.673596112999803	4	early	dm_task	0.673596112999803	n/a	-4.0	1.0	n/a
90.6735961129998	0.75	4	early	dm_task_post	n/a	n/a	n/a	n/a	n/a
101.5	0.5	4	early	em_task_pre	n/a	n/a	n/a	n/a	n/a
102.0	2.136619142999699	4	early	em_task	n/a	n/a	n/a	n/a	1.5430629598189
104.1366191429997	0.75	4	early	em_task_post	n/a	n/a	n/a	n/a	n/a
112.0	1.5	5	late	stimulus	n/a	135.0	n/a	n/a	n/a
123.5	0.5	5	late	dm_task_pre	n/a	n/a	n/a	n/a	n/a
124.0	0.511876817000029	5	late	dm_task	0.511876817000029	n/a	21.0	-1.0	n/a
124.51187681700003	0.75	5	late	dm_task_post	n/a	n/a	n/a	n/a	n/a
129.5	0.5	5	late	em_task_pre	n/a	n/a	n/a	n/a	n/a
130.0	1.7099759399998007	5	late	em_task	n/a	n/a	n/a	n/a	128.554054398625
131.7099759399998	0.75	5	late	em_task_post	n/a	n/a	n/a	n/a	n/a
140.0	1.5	6	late	stimulus	n/a	60.0	n/a	n/a	n/a
151.5	0.5	6	late	dm_task_pre	n/a	n/a	n/a	n/a	n/a
152.0	1.05146276699998	6	late	dm_task	1.05146276699998	n/a	0.0	-1.0	n/a
153.05146276699998	0.75	6	late	dm_task_post	n/a	n/a	n/a	n/a	n/a
157.5	0.5	6	late	em_task_pre	n/a	n/a	n/a	n/a	n/a
158.0	2.6985886819998015	6	late	em_task	n/a	n/a	n/a	n/a	65.7272897517275
160.6985886819998	0.75	6	late	em_task_post	n/a	n/a	n/a	n/a	n/a
168.0	1.5	7	late	stimulus	n/a	112.5	n/a	n/a	n/a
179.5	0.5	7	late	dm_task_pre	n/a	n/a	n/a	n/a	n/a
180.0	0.457674878000034	7	late	dm_task	0.457674878000034	n/a	-21.0	1.0	n/a
180.45767487800003	0.75	7	late	dm_task_post	n/a	n/a	n/a	n/a	n/a
185.5	0.5	7	late	em_task_pre	n/a	n/a	n/a	n/a	n/a
186.0	1.5398774689996984	7	late	em_task	n/a	n/a	n/a	n/a	103.835868264752
187.5398774689997	0.75	7	late	em_task_post	n/a	n/a	n/a	n/a	n/a
196.0	1.5	8	early	stimulus	n/a	172.5	n/a	n/a	n/a
201.5	0.5	8	early	dm_task_pre	n/a	n/a	n/a	n/a	n/a
202.0	1.00066582299996	8	early	dm_task	1.00066582299996	n/a	0.0	-1.0	n/a
203.00066582299996	0.75	8	early	dm_task_post	n/a	n/a	n/a	n/a	n/a
213.5	0.5	8	early	em_task_pre	n/a	n/a	n/a	n/a	n/a
214.0	3.4117961639999983	8	early	em_task	n/a	n/a	n/a	n/a	163.140424047547
217.411796164	0.75	8	early	em_task_post	n/a	n/a	n/a	n/a	n/a
224.0	1.5	9	late	stimulus	n/a	97.5	n/a	n/a	n/a
235.5	0.5	9	late	dm_task_pre	n/a	n/a	n/a	n/a	n/a
236.0	0.504650558999856	9	late	dm_task	0.504650558999856	n/a	-21.0	1.0	n/a
236.50465055899986	0.75	9	late	dm_task_post	n/a	n/a	n/a	n/a	n/a
241.5	0.5	9	late	em_task_pre	n/a	n/a	n/a	n/a	n/a
242.0	2.9677684769999004	9	late	em_task	n/a	n/a	n/a	n/a	98.2233320337553
244.9677684769999	0.75	9	late	em_task_post	n/a	n/a	n/a	n/a	n/a
252.0	1.5	10	late	stimulus	n/a	67.5	n/a	n/a	n/a
263.5	0.5	10	late	dm_task_pre	n/a	n/a	n/a	n/a	n/a
264.0	0.510418106999623	10	late	dm_task	0.510418106999623	n/a	4.0	-1.0	n/a
264.5104181069996	0.75	10	late	dm_task_post	n/a	n/a	n/a	n/a	n/a
269.5	0.5	10	late	em_task_pre	n/a	n/a	n/a	n/a	n/a
270.0	2.0247507829998987	10	late	em_task	n/a	n/a	n/a	n/a	61.5994805181025
272.0247507829999	0.75	10	late	em_task_post	n/a	n/a	n/a	n/a	n/a
280.0	1.5	11	late	stimulus	n/a	90.0	n/a	n/a	n/a
291.5	0.5	11	late	dm_task_pre	n/a	n/a	n/a	n/a	n/a
292.0	0.766364315999908	11	late	dm_task	0.766364315999908	n/a	-4.0	-1.0	n/a
292.7663643159999	0.75	11	late	dm_task_post	n/a	n/a	n/a	n/a	n/a
297.5	0.5	11	late	em_task_pre	n/a	n/a	n/a	n/a	n/a
298.0	1.7994192609999011	11	late	em_task	n/a	n/a	n/a	n/a	84.4397956154292
299.7994192609999	0.75	11	late	em_task_post	n/a	n/a	n/a	n/a	n/a
308.0	1.5	12	late	stimulus	n/a	105.0	n/a	n/a	n/a
319.5	0.5	12	late	dm_task_pre	n/a	n/a	n/a	n/a	n/a
320.0	0.557679839999764	12	late	dm_task	0.557679839999764	n/a	-21.0	1.0	n/a
320.55767983999976	0.75	12	late	dm_task_post	n/a	n/a	n/a	n/a	n/a
325.5	0.5	12	late	em_task_pre	n/a	n/a	n/a	n/a	n/a
326.0	2.3553970819999	12	late	em_task	n/a	n/a	n/a	n/a	114.516918404737
328.3553970819999	0.75	12	late	em_task_post	n/a	n/a	n/a	n/a	n/a
