onset	duration	trial	trial_type	event_type	response_time	value_stimulus	value_reference	response_decision	response_estimation
0.0	1.5	1	early	stimulus	n/a	60.0	n/a	n/a	n/a
5.5	0.5	1	early	dm_task_pre	n/a	n/a	n/a	n/a	n/a
6.0	0.729128446000004	1	early	dm_task	0.729128446000004	n/a	-21.0	1.0	n/a
6.729128446000004	0.75	1	early	dm_task_post	n/a	n/a	n/a	n/a	n/a
17.5	0.5	1	early	em_task_pre	n/a	n/a	n/a	n/a	n/a
18.0	2.1596465499998985	1	early	em_task	n/a	n/a	n/a	n/a	67.9639831528127
20.1596465499999	0.75	1	early	em_task_post	n/a	n/a	n/a	n/a	n/a
28.0	1.5	2	early	stimulus	n/a	135.0	n/a	n/a	n/a
33.5	0.5	2	early	dm_task_pre	n/a	n/a	n/a	n/a	n/a
34.0	0.719390483000097	2	early	dm_task	0.719390483000097	n/a	-4.0	-1.0	n/a
34.7193904830001	0.75	2	early	dm_task_post	n/a	n/a	n/a	n/a	n/a
45.5	0.5	2	early	em_task_pre	n/a	n/a	n/a	n/a	n/a
46.0	3.3643882030001	2	early	em_task	n/a	n/a	n/a	n/a	137.381501953217
49.364388203000104	0.75	2	early	em_task_post	n/a	n/a	n/a	n/a	n/a
56.0	1.5	3	early	stimulus	n/a	105.0	n/a	n/a	n/a
61.5	0.5	3	early	dm_task_pre	n/a	n/a	n/a	n/a	n/a
62.0	1.0752519749999	3	early	dm_task	1.0752519749999	n/a	0.0	1.0	n/a
63.0752519749999	0.75	3	early	dm_task_post	n/a	n/a	n/a	n/a	n/a
73.5	0.5	3	early	em_task_pre	n/a	n/a	n/a	n/a	n/a
74.0	2.4875174730000005	3	early	em_task	n/a	n/a	n/a	n/a	111.822118614507
76.487517473	0.75	3	early	em_task_post	n/a	n/a	n/a	n/a	n/a
84.0	1.5	4	late	stimulus	n/a	97.5	n/a	n/a	n/a
95.5	0.5	4	late	dm_task_pre	n/a	n/a	n/a	n/a	n/a
96.0	0.811786824999899	4	late	dm_task	0.811786824999899	n/a	4.0	-1.0	n/a
96.8117868249999	0.75	4	late	dm_task_post	n/a	n/a	n/a	n/a	n/a
101.5	0.5	4	late	em_task_pre	n/a	n/a	n/a	n/a	n/a
102.0	2.6616619529999994	4	late	em_task	n/a	n/a	n/a	n/a	91.4810291581423
104.66166195299999	0.75	4	late	em_task_post	n/a	n/a	n/a	n/a	n/a
112.0	1.5	5	early	stimulus	n/a	52.5	n/a	n/a	n/a
117.5	0.5	5	early	dm_task_pre	n/a	n/a	n/a	n/a	n/a
118.0	0.538912984000035	5	early	dm_task	0.538912984000035	n/a	0.0	-1.0	n/a
118.53891298400004	0.75	5	early	dm_task_post	n/a	n/a	n/a	n/a	n/a
129.5	0.5	5	early	em_task_pre	n/a	n/a	n/a	n/a	n/a
130.0	2.918304325000001	5	early	em_task	n/a	n/a	n/a	n/a	55.1799033407432
132.918304325	0.75	5	early	em_task_post	n/a	n/a	n/a	n/a	n/a
140.0	1.5	6	early	stimulus	n/a	172.5	n/a	n/a	n/a
145.5	0.5	6	early	dm_task_pre	n/a	n/a	n/a	n/a	n/a
146.0	0.61161558799995	6	early	dm_task	0.61161558799995	n/a	-4.0	-1.0	n/a
146.61161558799995	0.75	6	early	dm_task_post	n/a	n/a	n/a	n/a	n/a
157.5	0.5	6	early	em_task_pre	n/a	n/a	n/a	n/a	n/a
158.0	2.756981233000001	6	early	em_task	n/a	n/a	n/a	n/a	152.866749659958
160.756981233	0.75	6	early	em_task_post	n/a	n/a	n/a	n/a	n/a
168.0	1.5	7	early	stimulus	n/a	37.5	n/a	n/a	n/a
173.5	0.5	7	early	dm_task_pre	n/a	n/a	n/a	n/a	n/a
174.0	0.618539169000087	7	early	dm_task	0.618539169000087	n/a	-4.0	1.0	n/a
174.6185391690001	0.75	7	early	dm_task_post	n/a	n/a	n/a	n/a	n/a
185.5	0.5	7	early	em_task_pre	n/a	n/a	n/a	n/a	n/a
186.0	1.9979055819998983	7	early	em_task	n/a	n/a	n/a	n/a	18.0765932007909
187.9979055819999	0.75	7	early	em_task_post	n/a	n/a	n/a	n/a	n/a
196.0	1.5	8	early	stimulus	n/a	15.0	n/a	n/a	n/a
201.5	0.5	8	early	dm_task_pre	n/a	n/a	n/a	n/a	n/a
202.0	0.792094411000107	8	early	dm_task	0.792094411000107	n/a	0.0	1.0	n/a
202.7920944110001	0.75	8	early	dm_task_post	n/a	n/a	n/a	n/a	n/a
213.5	0.5	8	early	em_task_pre	n/a	n/a	n/a	n/a	n/a
214.0	1.9371940789999016	8	early	em_task	n/a	n/a	n/a	n/a	14.406275323313
215.9371940789999	0.75	8	early	em_task_post	n/a	n/a	n/a	n/a	n/a
224.0	1.5	9	early	stimulus	n/a	120.0	n/a	n/a	n/a
229.5	0.5	9	early	dm_task_pre	n/a	n/a	n/a	n/a	n/a
230.0	0.531497646999924	9	early	dm_task	0.531497646999924	n/a	21.0	-1.0	n/a
230.53149764699992	0.75	9	early	dm_task_post	n/a	n/a	n/a	n/a	n/a
241.5	0.5	9	early	em_task_pre	n/a	n/a	n/a	n/a	n/a
242.0	1.8285343110001016	9	early	em_task	n/a	n/a	n/a	n/a	112.032759774676
243.8285343110001	0.75	9	early	em_task_post	n/a	n/a	n/a	n/a	n/a
252.0	1.5	10	early	stimulus	n/a	30.0	n/a	n/a	n/a
257.5	0.5	10	early	dm_task_pre	n/a	n/a	n/a	n/a	n/a
258.0	0.605722080000078	10	early	dm_task	0.605722080000078	n/a	0.0	-1.0	n/a
258.6057220800001	0.75	10	early	dm_task_post	n/a	n/a	n/a	n/a	n/a
269.5	0.5	10	early	em_task_pre	n/a	n/a	n/a	n/a	n/a
270.0	1.451156161	10	early	em_task	n/a	n/a	n/a	n/a	36.0139920052863
271.451156161	0.75	10	early	em_task_post	n/a	n/a	n/a	n/a	n/a
280.0	1.5	11	early	stimulus	n/a	157.5	n/a	n/a	n/a
285.5	0.5	11	early	dm_task_pre	n/a	n/a	n/a	n/a	n/a
286.0	0.710815309000054	11	early	dm_task	0.710815309000054	n/a	-4.0	-1.0	n/a
286.71081530900005	0.75	11	early	dm_task_post	n/a	n/a	n/a	n/a	n/a
297.5	0.5	11	early	em_task_pre	n/a	n/a	n/a	n/a	n/a
298.0	1.8235055089999008	11	early	em_task	n/a	n/a	n/a	n/a	155.932171366501
299.8235055089999	0.75	11	early	em_task_post	n/a	n/a	n/a	n/a	n/a
308.0	1.5	12	early	stimulus	n/a	165.0	n/a	n/a	n/a
313.5	0.5	12	early	dm_task_pre	n/a	n/a	n/a	n/a	n/a
314.0	0.450887289000093	12	early	dm_task	0.450887289000093	n/a	21.0	-1.0	n/a
314.4508872890001	0.75	12	early	dm_task_post	n/a	n/a	n/a	n/a	n/a
325.5	0.5	12	early	em_task_pre	n/a	n/a	n/a	n/a	n/a
326.0	2.312043313	12	early	em_task	n/a	n/a	n/a	n/a	161.741889978249
328.312043313	0.75	12	early	em_task_post	n/a	n/a	n/a	n/a	n/a
