onset	duration	trial	trial_type	event_type	response_time	value_stimulus	value_reference	response_decision	response_estimation
0.0	1.5	1	late	stimulus	n/a	67.5	n/a	n/a	n/a
11.5	0.5	1	late	dm_task_pre	n/a	n/a	n/a	n/a	n/a
12.0	0.73941941402154	1	late	dm_task	0.73941941402154	n/a	21.0	-1.0	n/a
12.73941941402154	0.75	1	late	dm_task_post	n/a	n/a	n/a	n/a	n/a
17.5	0.5	1	late	em_task_pre	n/a	n/a	n/a	n/a	n/a
18.0	4.4094499109779015	1	late	em_task	n/a	n/a	n/a	n/a	62.460810212433
22.4094499109779	0.75	1	late	em_task_post	n/a	n/a	n/a	n/a	n/a
28.0	1.5	2	late	stimulus	n/a	172.5	n/a	n/a	n/a
39.5	0.5	2	late	dm_task_pre	n/a	n/a	n/a	n/a	n/a
40.0	0.682013858982828	2	late	dm_task	0.682013858982828	n/a	-21.0	1.0	n/a
40.68201385898283	0.75	2	late	dm_task_post	n/a	n/a	n/a	n/a	n/a
45.5	0.5	2	late	em_task_pre	n/a	n/a	n/a	n/a	n/a
46.0	3.9344284170073998	2	late	em_task	n/a	n/a	n/a	n/a	159.510369364501
49.934428417007396	0.75	2	late	em_task_post	n/a	n/a	n/a	n/a	n/a
56.0	1.5	3	late	stimulus	n/a	30.0	n/a	n/a	n/a
67.5	0.5	3	late	dm_task_pre	n/a	n/a	n/a	n/a	n/a
68.0	0.790763013006654	3	late	dm_task	0.790763013006654	n/a	-21.0	1.0	n/a
68.79076301300665	0.75	3	late	dm_task_post	n/a	n/a	n/a	n/a	n/a
73.5	0.5	3	late	em_task_pre	n/a	n/a	n/a	n/a	n/a
74.0	4.5	3	late	em_task	n/a	n/a	n/a	n/a	n/a
78.5	0.75	3	late	em_task_post	n/a	n/a	n/a	n/a	n/a
84.0	1.5	4	early	stimulus	n/a	0.0	n/a	n/a	n/a
89.5	0.5	4	early	dm_task_pre	n/a	n/a	n/a	n/a	n/a
90.0	1.5	4	early	dm_task	1.53229372901842	n/a	0.0	-1.0	n/a
91.5	0.75	4	early	dm_task_post	n/a	n/a	n/a	n/a	n/a
101.5	0.5	4	early	em_task_pre	n/a	n/a	n/a	n/a	n/a
102.0	2.4697649980079994	4	early	em_task	n/a	n/a	n/a	n/a	6.82743213095046
104.469764998008	0.75	4	early	em_task_post	n/a	n/a	n/a	n/a	n/a
112.0	1.5	5	late	stimulus	n/a	82.5	n/a	n/a	n/a
123.5	0.5	5	late	dm_task_pre	n/a	n/a	n/a	n/a	n/a
124.0	0.908913607010618	5	late	dm_task	0.908913607010618	n/a	4.0	-1.0	n/a
124.90891360701062	0.75	5	late	dm_task_post	n/a	n/a	n/a	n/a	n/a
129.5	0.5	5	late	em_task_pre	n/a	n/a	n/a	n/a	n/a
130.0	1.6971520099905	5	late	em_task	n/a	n/a	n/a	n/a	80.6728246163883
131.6971520099905	0.75	5	late	em_task_post	n/a	n/a	n/a	n/a	n/a
140.0	1.5	6	late	stimulus	n/a	90.0	n/a	n/a	n/a
151.5	0.5	6	late	dm_task_pre	n/a	n/a	n/a	n/a	n/a
152.0	0.701149208995048	6	late	dm_task	0.701149208995048	n/a	-21.0	1.0	n/a
152.70114920899505	0.75	6	late	dm_task_post	n/a	n/a	n/a	n/a	n/a
157.5	0.5	6	late	em_task_pre	n/a	n/a	n/a	n/a	n/a
158.0	2.6868754819733986	6	late	em_task	n/a	n/a	n/a	n/a	91.6079124006736
160.6868754819734	0.75	6	late	em_task_post	n/a	n/a	n/a	n/a	n/a
168.0	1.5	7	late	stimulus	n/a	15.0	n/a	n/a	n/a
179.5	0.5	7	late	dm_task_pre	n/a	n/a	n/a	n/a	n/a
180.0	0.944371605990455	7	late	dm_task	0.944371605990455	n/a	4.0	-1.0	n/a
180.94437160599045	0.75	7	late	dm_task_post	n/a	n/a	n/a	n/a	n/a
185.5	0.5	7	late	em_task_pre	n/a	n/a	n/a	n/a	n/a
186.0	3.380775317025801	7	late	em_task	n/a	n/a	n/a	n/a	6.83887578893076
189.3807753170258	0.75	7	late	em_task_post	n/a	n/a	n/a	n/a	n/a
196.0	1.5	8	late	stimulus	n/a	135.0	n/a	n/a	n/a
207.5	0.5	8	late	dm_task_pre	n/a	n/a	n/a	n/a	n/a
208.0	1.23618821398122	8	late	dm_task	1.23618821398122	n/a	-4.0	-1.0	n/a
209.23618821398122	0.75	8	late	dm_task_post	n/a	n/a	n/a	n/a	n/a
213.5	0.5	8	late	em_task_pre	n/a	n/a	n/a	n/a	n/a
214.0	1.9057050680276006	8	late	em_task	n/a	n/a	n/a	n/a	121.502299302929
215.9057050680276	0.75	8	late	em_task_post	n/a	n/a	n/a	n/a	n/a
224.0	1.5	9	late	stimulus	n/a	150.0	n/a	n/a	n/a
235.5	0.5	9	late	dm_task_pre	n/a	n/a	n/a	n/a	n/a
236.0	1.11172662698664	9	late	dm_task	1.11172662698664	n/a	4.0	1.0	n/a
237.11172662698664	0.75	9	late	dm_task_post	n/a	n/a	n/a	n/a	n/a
241.5	0.5	9	late	em_task_pre	n/a	n/a	n/a	n/a	n/a
242.0	2.1972297449828986	9	late	em_task	n/a	n/a	n/a	n/a	163.556953648098
244.1972297449829	0.75	9	late	em_task_post	n/a	n/a	n/a	n/a	n/a
252.0	1.5	10	late	stimulus	n/a	165.0	n/a	n/a	n/a
263.5	0.5	10	late	dm_task_pre	n/a	n/a	n/a	n/a	n/a
264.0	0.804581399017479	10	late	dm_task	0.804581399017479	n/a	21.0	-1.0	n/a
264.8045813990175	0.75	10	late	dm_task_post	n/a	n/a	n/a	n/a	n/a
269.5	0.5	10	late	em_task_pre	n/a	n/a	n/a	n/a	n/a
270.0	4.5	10	late	em_task	n/a	n/a	n/a	n/a	n/a
274.5	0.75	10	late	em_task_post	n/a	n/a	n/a	n/a	n/a
280.0	1.5	11	early	stimulus	n/a	157.5	n/a	n/a	n/a
285.5	0.5	11	early	dm_task_pre	n/a	n/a	n/a	n/a	n/a
286.0	1.47868039098103	11	early	dm_task	1.47868039098103	n/a	-21.0	1.0	n/a
287.478680390981	0.75	11	early	dm_task_post	n/a	n/a	n/a	n/a	n/a
297.5	0.5	11	early	em_task_pre	n/a	n/a	n/a	n/a	n/a
298.0	3.400130819994999	11	early	em_task	n/a	n/a	n/a	n/a	142.685059513414
301.400130819995	0.75	11	early	em_task_post	n/a	n/a	n/a	n/a	n/a
308.0	1.5	12	late	stimulus	n/a	75.0	n/a	n/a	n/a
319.5	0.5	12	late	dm_task_pre	n/a	n/a	n/a	n/a	n/a
320.0	0.806211235001683	12	late	dm_task	0.806211235001683	n/a	21.0	-1.0	n/a
320.8062112350017	0.75	12	late	dm_task_post	n/a	n/a	n/a	n/a	n/a
325.5	0.5	12	late	em_task_pre	n/a	n/a	n/a	n/a	n/a
326.0	3.6263859010068984	12	late	em_task	n/a	n/a	n/a	n/a	58.7690574458228
329.62638590100687	0.75	12	late	em_task_post	n/a	n/a	n/a	n/a	n/a
