onset	duration	trial	trial_type	event_type	response_time	value_stimulus	value_reference	response_decision	response_estimation
0.0	1.5	1	late	stimulus	n/a	127.5	n/a	n/a	n/a
11.5	0.5	1	late	dm_task_pre	n/a	n/a	n/a	n/a	n/a
12.0	1.04710017500474	1	late	dm_task	1.04710017500474	n/a	-4.0	1.0	n/a
13.04710017500474	0.75	1	late	dm_task_post	n/a	n/a	n/a	n/a	n/a
17.5	0.5	1	late	em_task_pre	n/a	n/a	n/a	n/a	n/a
18.0	2.9939110090054015	1	late	em_task	n/a	n/a	n/a	n/a	136.315319843155
20.9939110090054	0.75	1	late	em_task_post	n/a	n/a	n/a	n/a	n/a
28.0	1.5	2	early	stimulus	n/a	97.5	n/a	n/a	n/a
33.5	0.5	2	early	dm_task_pre	n/a	n/a	n/a	n/a	n/a
34.0	0.772211282004719	2	early	dm_task	0.772211282004719	n/a	0.0	1.0	n/a
34.77221128200472	0.75	2	early	dm_task_post	n/a	n/a	n/a	n/a	n/a
45.5	0.5	2	early	em_task_pre	n/a	n/a	n/a	n/a	n/a
46.0	2.0022713600046984	2	early	em_task	n/a	n/a	n/a	n/a	110.603934741612
48.0022713600047	0.75	2	early	em_task_post	n/a	n/a	n/a	n/a	n/a
56.0	1.5	3	early	stimulus	n/a	30.0	n/a	n/a	n/a
61.5	0.5	3	early	dm_task_pre	n/a	n/a	n/a	n/a	n/a
62.0	1.07864708000125	3	early	dm_task	1.07864708000125	n/a	-21.0	1.0	n/a
63.07864708000125	0.75	3	early	dm_task_post	n/a	n/a	n/a	n/a	n/a
73.5	0.5	3	early	em_task_pre	n/a	n/a	n/a	n/a	n/a
74.0	2.2916258700061007	3	early	em_task	n/a	n/a	n/a	n/a	31.3713692755464
76.2916258700061	0.75	3	early	em_task_post	n/a	n/a	n/a	n/a	n/a
84.0	1.5	4	late	stimulus	n/a	157.5	n/a	n/a	n/a
95.5	0.5	4	late	dm_task_pre	n/a	n/a	n/a	n/a	n/a
96.0	0.883796122005151	4	late	dm_task	0.883796122005151	n/a	-4.0	-1.0	n/a
96.88379612200515	0.75	4	late	dm_task_post	n/a	n/a	n/a	n/a	n/a
101.5	0.5	4	late	em_task_pre	n/a	n/a	n/a	n/a	n/a
102.0	2.1317671979996007	4	late	em_task	n/a	n/a	n/a	n/a	137.949312959819
104.13176719799961	0.75	4	late	em_task_post	n/a	n/a	n/a	n/a	n/a
112.0	1.5	5	late	stimulus	n/a	22.5	n/a	n/a	n/a
123.5	0.5	5	late	dm_task_pre	n/a	n/a	n/a	n/a	n/a
124.0	0.873524378002912	5	late	dm_task	0.873524378002912	n/a	0.0	-1.0	n/a
124.87352437800291	0.75	5	late	dm_task_post	n/a	n/a	n/a	n/a	n/a
129.5	0.5	5	late	em_task_pre	n/a	n/a	n/a	n/a	n/a
130.0	3.1214324590036995	5	late	em_task	n/a	n/a	n/a	n/a	19.5696793986245
133.1214324590037	0.75	5	late	em_task_post	n/a	n/a	n/a	n/a	n/a
140.0	1.5	6	early	stimulus	n/a	60.0	n/a	n/a	n/a
145.5	0.5	6	early	dm_task_pre	n/a	n/a	n/a	n/a	n/a
146.0	0.881241936003789	6	early	dm_task	0.881241936003789	n/a	4.0	-1.0	n/a
146.8812419360038	0.75	6	early	dm_task_post	n/a	n/a	n/a	n/a	n/a
157.5	0.5	6	early	em_task_pre	n/a	n/a	n/a	n/a	n/a
158.0	1.677775451003999	6	early	em_task	n/a	n/a	n/a	n/a	69.9460397517275
159.677775451004	0.75	6	early	em_task_post	n/a	n/a	n/a	n/a	n/a
168.0	1.5	7	late	stimulus	n/a	135.0	n/a	n/a	n/a
179.5	0.5	7	late	dm_task_pre	n/a	n/a	n/a	n/a	n/a
180.0	1.05301146300189	7	late	dm_task	1.05301146300189	n/a	0.0	1.0	n/a
181.0530114630019	0.75	7	late	dm_task_post	n/a	n/a	n/a	n/a	n/a
185.5	0.5	7	late	em_task_pre	n/a	n/a	n/a	n/a	n/a
186.0	2.601093189004999	7	late	em_task	n/a	n/a	n/a	n/a	146.023368264752
188.60109318900498	0.75	7	late	em_task_post	n/a	n/a	n/a	n/a	n/a
196.0	1.5	8	late	stimulus	n/a	165.0	n/a	n/a	n/a
207.5	0.5	8	late	dm_task_pre	n/a	n/a	n/a	n/a	n/a
208.0	1.04271214300388	8	late	dm_task	1.04271214300388	n/a	0.0	1.0	n/a
209.04271214300388	0.75	8	late	dm_task_post	n/a	n/a	n/a	n/a	n/a
213.5	0.5	8	late	em_task_pre	n/a	n/a	n/a	n/a	n/a
214.0	3.706457772001201	8	late	em_task	n/a	n/a	n/a	n/a	165.952924047547
217.70645777200122	0.75	8	late	em_task_post	n/a	n/a	n/a	n/a	n/a
224.0	1.5	9	early	stimulus	n/a	172.5	n/a	n/a	n/a
229.5	0.5	9	early	dm_task_pre	n/a	n/a	n/a	n/a	n/a
230.0	0.835606456006644	9	early	dm_task	0.835606456006644	n/a	0.0	-1.0	n/a
230.83560645600664	0.75	9	early	dm_task_post	n/a	n/a	n/a	n/a	n/a
241.5	0.5	9	early	em_task_pre	n/a	n/a	n/a	n/a	n/a
242.0	2.5800796720068	9	early	em_task	n/a	n/a	n/a	n/a	157.285832033755
244.5800796720068	0.75	9	early	em_task_post	n/a	n/a	n/a	n/a	n/a
252.0	1.5	10	early	stimulus	n/a	82.5	n/a	n/a	n/a
257.5	0.5	10	early	dm_task_pre	n/a	n/a	n/a	n/a	n/a
258.0	0.85780425700068	10	early	dm_task	0.85780425700068	n/a	4.0	-1.0	n/a
258.8578042570007	0.75	10	early	dm_task_post	n/a	n/a	n/a	n/a	n/a
269.5	0.5	10	early	em_task_pre	n/a	n/a	n/a	n/a	n/a
270.0	3.0860249640027	10	early	em_task	n/a	n/a	n/a	n/a	77.0682305181025
273.0860249640027	0.75	10	early	em_task_post	n/a	n/a	n/a	n/a	n/a
280.0	1.5	11	early	stimulus	n/a	37.5	n/a	n/a	n/a
285.5	0.5	11	early	dm_task_pre	n/a	n/a	n/a	n/a	n/a
286.0	0.763680606003618	11	early	dm_task	0.763680606003618	n/a	-4.0	1.0	n/a
286.7636806060036	0.75	11	early	dm_task_post	n/a	n/a	n/a	n/a	n/a
297.5	0.5	11	early	em_task_pre	n/a	n/a	n/a	n/a	n/a
298.0	2.6096055430024983	11	early	em_task	n/a	n/a	n/a	n/a	19.0491706154292
300.6096055430025	0.75	11	early	em_task_post	n/a	n/a	n/a	n/a	n/a
308.0	1.5	12	early	stimulus	n/a	105.0	n/a	n/a	n/a
313.5	0.5	12	early	dm_task_pre	n/a	n/a	n/a	n/a	n/a
314.0	1.13766576600028	12	early	dm_task	1.13766576600028	n/a	-4.0	1.0	n/a
315.1376657660003	0.75	12	early	dm_task_post	n/a	n/a	n/a	n/a	n/a
325.5	0.5	12	early	em_task_pre	n/a	n/a	n/a	n/a	n/a
326.0	3.0992698500049016	12	early	em_task	n/a	n/a	n/a	n/a	111.704418404737
329.09926985000493	0.75	12	early	em_task_post	n/a	n/a	n/a	n/a	n/a
