onset	duration	trial	trial_type	event_type	response_time	value_stimulus	value_reference	response_decision	response_estimation
0.0	1.5	1	early	stimulus	n/a	127.5	n/a	n/a	n/a
5.5	0.5	1	early	dm_task_pre	n/a	n/a	n/a	n/a	n/a
6.0	1.5	1	early	dm_task	1.54386334999981	n/a	-4.0	-1.0	n/a
7.5	0.75	1	early	dm_task_post	n/a	n/a	n/a	n/a	n/a
17.5	0.5	1	early	em_task_pre	n/a	n/a	n/a	n/a	n/a
18.0	3.0707377879998994	1	early	em_task	n/a	n/a	n/a	n/a	124.362194843155
21.0707377879999	0.75	1	early	em_task_post	n/a	n/a	n/a	n/a	n/a
28.0	1.5	2	late	stimulus	n/a	45.0	n/a	n/a	n/a
39.5	0.5	2	late	dm_task_pre	n/a	n/a	n/a	n/a	n/a
40.0	1.07943478000016	2	late	dm_task	1.07943478000016	n/a	-4.0	1.0	n/a
41.079434780000156	0.75	2	late	dm_task_post	n/a	n/a	n/a	n/a	n/a
45.5	0.5	2	late	em_task_pre	n/a	n/a	n/a	n/a	n/a
46.0	3.544410022999699	2	late	em_task	n/a	n/a	n/a	n/a	43.807059741612
49.5444100229997	0.75	2	late	em_task_post	n/a	n/a	n/a	n/a	n/a
56.0	1.5	3	early	stimulus	n/a	150.0	n/a	n/a	n/a
61.5	0.5	3	early	dm_task_pre	n/a	n/a	n/a	n/a	n/a
62.0	0.539912126999752	3	early	dm_task	0.539912126999752	n/a	-21.0	1.0	n/a
62.53991212699975	0.75	3	early	dm_task_post	n/a	n/a	n/a	n/a	n/a
73.5	0.5	3	early	em_task_pre	n/a	n/a	n/a	n/a	n/a
74.0	3.1022179229998983	3	early	em_task	n/a	n/a	n/a	n/a	151.605744275546
77.1022179229999	0.75	3	early	em_task_post	n/a	n/a	n/a	n/a	n/a
84.0	1.5	4	early	stimulus	n/a	90.0	n/a	n/a	n/a
89.5	0.5	4	early	dm_task_pre	n/a	n/a	n/a	n/a	n/a
90.0	0.595284935000109	4	early	dm_task	0.595284935000109	n/a	-4.0	1.0	n/a
90.59528493500011	0.75	4	early	dm_task_post	n/a	n/a	n/a	n/a	n/a
101.5	0.5	4	early	em_task_pre	n/a	n/a	n/a	n/a	n/a
102.0	3.7734767620000014	4	early	em_task	n/a	n/a	n/a	n/a	86.6211879598189
105.773476762	0.75	4	early	em_task_post	n/a	n/a	n/a	n/a	n/a
112.0	1.5	5	early	stimulus	n/a	15.0	n/a	n/a	n/a
117.5	0.5	5	early	dm_task_pre	n/a	n/a	n/a	n/a	n/a
118.0	0.918677353000021	5	early	dm_task	0.918677353000021	n/a	0.0	1.0	n/a
118.91867735300002	0.75	5	early	dm_task_post	n/a	n/a	n/a	n/a	n/a
129.5	0.5	5	early	em_task_pre	n/a	n/a	n/a	n/a	n/a
130.0	3.4632440869999996	5	early	em_task	n/a	n/a	n/a	n/a	15.3509293986245
133.463244087	0.75	5	early	em_task_post	n/a	n/a	n/a	n/a	n/a
140.0	1.5	6	early	stimulus	n/a	97.5	n/a	n/a	n/a
145.5	0.5	6	early	dm_task_pre	n/a	n/a	n/a	n/a	n/a
146.0	0.558261055999992	6	early	dm_task	0.558261055999992	n/a	-4.0	1.0	n/a
146.558261056	0.75	6	early	dm_task_post	n/a	n/a	n/a	n/a	n/a
157.5	0.5	6	early	em_task_pre	n/a	n/a	n/a	n/a	n/a
158.0	2.8876324829997984	6	early	em_task	n/a	n/a	n/a	n/a	98.0710397517275
160.8876324829998	0.75	6	early	em_task_post	n/a	n/a	n/a	n/a	n/a
168.0	1.5	7	early	stimulus	n/a	67.5	n/a	n/a	n/a
173.5	0.5	7	early	dm_task_pre	n/a	n/a	n/a	n/a	n/a
174.0	0.565897554000003	7	early	dm_task	0.565897554000003	n/a	21.0	-1.0	n/a
174.565897554	0.75	7	early	dm_task_post	n/a	n/a	n/a	n/a	n/a
185.5	0.5	7	early	em_task_pre	n/a	n/a	n/a	n/a	n/a
186.0	1.5452689549997984	7	early	em_task	n/a	n/a	n/a	n/a	68.679618264752
187.5452689549998	0.75	7	early	em_task_post	n/a	n/a	n/a	n/a	n/a
196.0	1.5	8	early	stimulus	n/a	60.0	n/a	n/a	n/a
201.5	0.5	8	early	dm_task_pre	n/a	n/a	n/a	n/a	n/a
202.0	0.587824913000077	8	early	dm_task	0.587824913000077	n/a	21.0	-1.0	n/a
202.58782491300008	0.75	8	early	dm_task_post	n/a	n/a	n/a	n/a	n/a
213.5	0.5	8	early	em_task_pre	n/a	n/a	n/a	n/a	n/a
214.0	2.4841502999998006	8	early	em_task	n/a	n/a	n/a	n/a	68.2185490475466
216.4841502999998	0.75	8	early	em_task_post	n/a	n/a	n/a	n/a	n/a
224.0	1.5	9	late	stimulus	n/a	165.0	n/a	n/a	n/a
235.5	0.5	9	late	dm_task_pre	n/a	n/a	n/a	n/a	n/a
236.0	0.627559801999723	9	late	dm_task	0.627559801999723	n/a	21.0	-1.0	n/a
236.62755980199972	0.75	9	late	dm_task_post	n/a	n/a	n/a	n/a	n/a
241.5	0.5	9	late	em_task_pre	n/a	n/a	n/a	n/a	n/a
242.0	2.4239035549998995	9	late	em_task	n/a	n/a	n/a	n/a	164.317082033755
244.4239035549999	0.75	9	late	em_task_post	n/a	n/a	n/a	n/a	n/a
252.0	1.5	10	late	stimulus	n/a	0.0	n/a	n/a	n/a
263.5	0.5	10	late	dm_task_pre	n/a	n/a	n/a	n/a	n/a
264.0	1.1487616039999	10	late	dm_task	1.1487616039999	n/a	0.0	1.0	n/a
265.1487616039999	0.75	10	late	dm_task_post	n/a	n/a	n/a	n/a	n/a
269.5	0.5	10	late	em_task_pre	n/a	n/a	n/a	n/a	n/a
270.0	3.0465984719999	10	late	em_task	n/a	n/a	n/a	n/a	179.724480518103
273.0465984719999	0.75	10	late	em_task_post	n/a	n/a	n/a	n/a	n/a
280.0	1.5	11	late	stimulus	n/a	7.5	n/a	n/a	n/a
291.5	0.5	11	late	dm_task_pre	n/a	n/a	n/a	n/a	n/a
292.0	1.12156756800005	11	late	dm_task	1.12156756800005	n/a	21.0	-1.0	n/a
293.12156756800005	0.75	11	late	dm_task_post	n/a	n/a	n/a	n/a	n/a
297.5	0.5	11	late	em_task_pre	n/a	n/a	n/a	n/a	n/a
298.0	3.6868804940000004	11	late	em_task	n/a	n/a	n/a	n/a	9.9085456154292
301.686880494	0.75	11	late	em_task_post	n/a	n/a	n/a	n/a	n/a
308.0	1.5	12	early	stimulus	n/a	142.5	n/a	n/a	n/a
313.5	0.5	12	early	dm_task_pre	n/a	n/a	n/a	n/a	n/a
314.0	0.598679585999889	12	early	dm_task	0.598679585999889	n/a	-21.0	1.0	n/a
314.5986795859999	0.75	12	early	dm_task_post	n/a	n/a	n/a	n/a	n/a
325.5	0.5	12	early	em_task_pre	n/a	n/a	n/a	n/a	n/a
326.0	3.1273206880001005	12	early	em_task	n/a	n/a	n/a	n/a	150.376293404737
329.1273206880001	0.75	12	early	em_task_post	n/a	n/a	n/a	n/a	n/a
