onset	duration	trial	trial_type	event_type	response_time	value_stimulus	value_reference	response_decision	response_estimation
0.0	1.5	1	early	stimulus	n/a	82.5	n/a	n/a	n/a
5.5	0.5	1	early	dm_task_pre	n/a	n/a	n/a	n/a	n/a
6.0	0.650472374167293	1	early	dm_task	0.650472374167293	n/a	21.0	-1.0	n/a
6.650472374167293	0.75	1	early	dm_task_post	n/a	n/a	n/a	n/a	n/a
17.5	0.5	1	early	em_task_pre	n/a	n/a	n/a	n/a	n/a
18.0	2.3940041509922985	1	early	em_task	n/a	n/a	n/a	n/a	77.9559448431551
20.3940041509923	0.75	1	early	em_task_post	n/a	n/a	n/a	n/a	n/a
28.0	1.5	2	early	stimulus	n/a	0.0	n/a	n/a	n/a
33.5	0.5	2	early	dm_task_pre	n/a	n/a	n/a	n/a	n/a
34.0	0.571899682050571	2	early	dm_task	0.571899682050571	n/a	21.0	-1.0	n/a
34.57189968205057	0.75	2	early	dm_task_post	n/a	n/a	n/a	n/a	n/a
45.5	0.5	2	early	em_task_pre	n/a	n/a	n/a	n/a	n/a
46.0	2.4847314490471	2	early	em_task	n/a	n/a	n/a	n/a	1.61955974161202
48.4847314490471	0.75	2	early	em_task_post	n/a	n/a	n/a	n/a	n/a
56.0	1.5	3	early	stimulus	n/a	75.0	n/a	n/a	n/a
61.5	0.5	3	early	dm_task_pre	n/a	n/a	n/a	n/a	n/a
62.0	0.562695067143068	3	early	dm_task	0.562695067143068	n/a	21.0	-1.0	n/a
62.56269506714307	0.75	3	early	dm_task_post	n/a	n/a	n/a	n/a	n/a
73.5	0.5	3	early	em_task_pre	n/a	n/a	n/a	n/a	n/a
74.0	2.289183204062301	3	early	em_task	n/a	n/a	n/a	n/a	77.7776192755464
76.2891832040623	0.75	3	early	em_task_post	n/a	n/a	n/a	n/a	n/a
84.0	1.5	4	late	stimulus	n/a	150.0	n/a	n/a	n/a
95.5	0.5	4	late	dm_task_pre	n/a	n/a	n/a	n/a	n/a
96.0	1.09995878301561	4	late	dm_task	1.09995878301561	n/a	4.0	-1.0	n/a
97.09995878301561	0.75	4	late	dm_task_post	n/a	n/a	n/a	n/a	n/a
101.5	0.5	4	late	em_task_pre	n/a	n/a	n/a	n/a	n/a
102.0	3.1132487179711	4	late	em_task	n/a	n/a	n/a	n/a	161.855562959819
105.1132487179711	0.75	4	late	em_task_post	n/a	n/a	n/a	n/a	n/a
112.0	1.5	5	early	stimulus	n/a	7.5	n/a	n/a	n/a
117.5	0.5	5	early	dm_task_pre	n/a	n/a	n/a	n/a	n/a
118.0	0.557878099149093	5	early	dm_task	0.557878099149093	n/a	-4.0	1.0	n/a
118.5578780991491	0.75	5	early	dm_task_post	n/a	n/a	n/a	n/a	n/a
129.5	0.5	5	early	em_task_pre	n/a	n/a	n/a	n/a	n/a
130.0	3.0534523420501998	5	early	em_task	n/a	n/a	n/a	n/a	7.61655439862454
133.0534523420502	0.75	5	early	em_task_post	n/a	n/a	n/a	n/a	n/a
140.0	1.5	6	late	stimulus	n/a	90.0	n/a	n/a	n/a
151.5	0.5	6	late	dm_task_pre	n/a	n/a	n/a	n/a	n/a
152.0	0.546670099021867	6	late	dm_task	0.546670099021867	n/a	-21.0	1.0	n/a
152.54667009902187	0.75	6	late	dm_task_post	n/a	n/a	n/a	n/a	n/a
157.5	0.5	6	late	em_task_pre	n/a	n/a	n/a	n/a	n/a
158.0	2.4448057571426	6	late	em_task	n/a	n/a	n/a	n/a	93.1491647517275
160.4448057571426	0.75	6	late	em_task_post	n/a	n/a	n/a	n/a	n/a
168.0	1.5	7	early	stimulus	n/a	105.0	n/a	n/a	n/a
173.5	0.5	7	early	dm_task_pre	n/a	n/a	n/a	n/a	n/a
174.0	0.872047862038016	7	early	dm_task	0.872047862038016	n/a	4.0	-1.0	n/a
174.87204786203802	0.75	7	early	dm_task_post	n/a	n/a	n/a	n/a	n/a
185.5	0.5	7	early	em_task_pre	n/a	n/a	n/a	n/a	n/a
186.0	2.3987310291268003	7	early	em_task	n/a	n/a	n/a	n/a	108.054618264752
188.3987310291268	0.75	7	early	em_task_post	n/a	n/a	n/a	n/a	n/a
196.0	1.5	8	late	stimulus	n/a	127.5	n/a	n/a	n/a
207.5	0.5	8	late	dm_task_pre	n/a	n/a	n/a	n/a	n/a
208.0	0.574291272088885	8	late	dm_task	0.574291272088885	n/a	21.0	-1.0	n/a
208.57429127208889	0.75	8	late	dm_task_post	n/a	n/a	n/a	n/a	n/a
213.5	0.5	8	late	em_task_pre	n/a	n/a	n/a	n/a	n/a
214.0	2.455622771056401	8	late	em_task	n/a	n/a	n/a	n/a	131.499799047547
216.4556227710564	0.75	8	late	em_task_post	n/a	n/a	n/a	n/a	n/a
224.0	1.5	9	late	stimulus	n/a	60.0	n/a	n/a	n/a
235.5	0.5	9	late	dm_task_pre	n/a	n/a	n/a	n/a	n/a
236.0	1.08229805901647	9	late	dm_task	1.08229805901647	n/a	0.0	-1.0	n/a
237.08229805901647	0.75	9	late	dm_task_post	n/a	n/a	n/a	n/a	n/a
241.5	0.5	9	late	em_task_pre	n/a	n/a	n/a	n/a	n/a
242.0	1.9970182680991009	9	late	em_task	n/a	n/a	n/a	n/a	53.2233320337553
243.9970182680991	0.75	9	late	em_task_post	n/a	n/a	n/a	n/a	n/a
252.0	1.5	10	late	stimulus	n/a	135.0	n/a	n/a	n/a
263.5	0.5	10	late	dm_task_pre	n/a	n/a	n/a	n/a	n/a
264.0	0.654341818066314	10	late	dm_task	0.654341818066314	n/a	21.0	-1.0	n/a
264.6543418180663	0.75	10	late	dm_task_post	n/a	n/a	n/a	n/a	n/a
269.5	0.5	10	late	em_task_pre	n/a	n/a	n/a	n/a	n/a
270.0	2.8192293131724	10	late	em_task	n/a	n/a	n/a	n/a	148.083855518103
272.8192293131724	0.75	10	late	em_task_post	n/a	n/a	n/a	n/a	n/a
280.0	1.5	11	early	stimulus	n/a	22.5	n/a	n/a	n/a
285.5	0.5	11	early	dm_task_pre	n/a	n/a	n/a	n/a	n/a
286.0	0.563425080152228	11	early	dm_task	0.563425080152228	n/a	4.0	-1.0	n/a
286.56342508015223	0.75	11	early	dm_task_post	n/a	n/a	n/a	n/a	n/a
297.5	0.5	11	early	em_task_pre	n/a	n/a	n/a	n/a	n/a
298.0	3.8079064120538995	11	early	em_task	n/a	n/a	n/a	n/a	12.0179206154292
301.8079064120539	0.75	11	early	em_task_post	n/a	n/a	n/a	n/a	n/a
308.0	1.5	12	late	stimulus	n/a	157.5	n/a	n/a	n/a
319.5	0.5	12	late	dm_task_pre	n/a	n/a	n/a	n/a	n/a
320.0	0.617962092161179	12	late	dm_task	0.617962092161179	n/a	4.0	-1.0	n/a
320.6179620921612	0.75	12	late	dm_task_post	n/a	n/a	n/a	n/a	n/a
325.5	0.5	12	late	em_task_pre	n/a	n/a	n/a	n/a	n/a
326.0	3.6477584720123986	12	late	em_task	n/a	n/a	n/a	n/a	153.891918404737
329.6477584720124	0.75	12	late	em_task_post	n/a	n/a	n/a	n/a	n/a
