onset	duration	trial	trial_type	event_type	response_time	value_stimulus	value_reference	response_decision	response_estimation
0.0	1.5	1	early	stimulus	n/a	45.0	n/a	n/a	n/a
5.5	0.5	1	early	dm_task_pre	n/a	n/a	n/a	n/a	n/a
6.0	0.602994000073522	1	early	dm_task	0.602994000073522	n/a	-21.0	1.0	n/a
6.602994000073522	0.75	1	early	dm_task_post	n/a	n/a	n/a	n/a	n/a
17.5	0.5	1	early	em_task_pre	n/a	n/a	n/a	n/a	n/a
18.0	3.1498397130052993	1	early	em_task	n/a	n/a	n/a	n/a	37.0264831528127
21.1498397130053	0.75	1	early	em_task_post	n/a	n/a	n/a	n/a	n/a
28.0	1.5	2	late	stimulus	n/a	60.0	n/a	n/a	n/a
39.5	0.5	2	late	dm_task_pre	n/a	n/a	n/a	n/a	n/a
40.0	0.674639749107882	2	late	dm_task	0.674639749107882	n/a	21.0	-1.0	n/a
40.67463974910788	0.75	2	late	dm_task_post	n/a	n/a	n/a	n/a	n/a
45.5	0.5	2	late	em_task_pre	n/a	n/a	n/a	n/a	n/a
46.0	2.7893908659461992	2	late	em_task	n/a	n/a	n/a	n/a	69.178376953217
48.7893908659462	0.75	2	late	em_task_post	n/a	n/a	n/a	n/a	n/a
56.0	1.5	3	early	stimulus	n/a	15.0	n/a	n/a	n/a
61.5	0.5	3	early	dm_task_pre	n/a	n/a	n/a	n/a	n/a
62.0	0.633784824982285	3	early	dm_task	0.633784824982285	n/a	4.0	-1.0	n/a
62.633784824982285	0.75	3	early	dm_task_post	n/a	n/a	n/a	n/a	n/a
73.5	0.5	3	early	em_task_pre	n/a	n/a	n/a	n/a	n/a
74.0	2.7293245680629994	3	early	em_task	n/a	n/a	n/a	n/a	10.5721186145072
76.72932456806299	0.75	3	early	em_task_post	n/a	n/a	n/a	n/a	n/a
84.0	1.5	4	late	stimulus	n/a	165.0	n/a	n/a	n/a
95.5	0.5	4	late	dm_task_pre	n/a	n/a	n/a	n/a	n/a
96.0	0.754918324993923	4	late	dm_task	0.754918324993923	n/a	-21.0	1.0	n/a
96.75491832499392	0.75	4	late	dm_task_post	n/a	n/a	n/a	n/a	n/a
101.5	0.5	4	late	em_task_pre	n/a	n/a	n/a	n/a	n/a
102.0	3.5183108509517993	4	late	em_task	n/a	n/a	n/a	n/a	169.527904158142
105.51831085095179	0.75	4	late	em_task_post	n/a	n/a	n/a	n/a	n/a
112.0	1.5	5	late	stimulus	n/a	97.5	n/a	n/a	n/a
123.5	0.5	5	late	dm_task_pre	n/a	n/a	n/a	n/a	n/a
124.0	0.695114591158926	5	late	dm_task	0.695114591158926	n/a	21.0	-1.0	n/a
124.69511459115893	0.75	5	late	dm_task_post	n/a	n/a	n/a	n/a	n/a
129.5	0.5	5	late	em_task_pre	n/a	n/a	n/a	n/a	n/a
130.0	3.7419834029861008	5	late	em_task	n/a	n/a	n/a	n/a	100.883028340743
133.7419834029861	0.75	5	late	em_task_post	n/a	n/a	n/a	n/a	n/a
140.0	1.5	6	early	stimulus	n/a	135.0	n/a	n/a	n/a
145.5	0.5	6	early	dm_task_pre	n/a	n/a	n/a	n/a	n/a
146.0	1.5	6	early	dm_task	1.584478989942	n/a	-4.0	1.0	n/a
147.5	0.75	6	early	dm_task_post	n/a	n/a	n/a	n/a	n/a
157.5	0.5	6	early	em_task_pre	n/a	n/a	n/a	n/a	n/a
158.0	2.2826997840310987	6	early	em_task	n/a	n/a	n/a	n/a	128.960499659958
160.2826997840311	0.75	6	early	em_task_post	n/a	n/a	n/a	n/a	n/a
168.0	1.5	7	early	stimulus	n/a	22.5	n/a	n/a	n/a
173.5	0.5	7	early	dm_task_pre	n/a	n/a	n/a	n/a	n/a
174.0	0.576133257942274	7	early	dm_task	0.576133257942274	n/a	21.0	-1.0	n/a
174.57613325794227	0.75	7	early	dm_task_post	n/a	n/a	n/a	n/a	n/a
185.5	0.5	7	early	em_task_pre	n/a	n/a	n/a	n/a	n/a
186.0	2.3063997940625995	7	early	em_task	n/a	n/a	n/a	n/a	15.2640932007909
188.3063997940626	0.75	7	early	em_task_post	n/a	n/a	n/a	n/a	n/a
196.0	1.5	8	late	stimulus	n/a	120.0	n/a	n/a	n/a
207.5	0.5	8	late	dm_task_pre	n/a	n/a	n/a	n/a	n/a
208.0	1.46377089899033	8	late	dm_task	1.46377089899033	n/a	0.0	-1.0	n/a
209.46377089899033	0.75	8	late	dm_task_post	n/a	n/a	n/a	n/a	n/a
213.5	0.5	8	late	em_task_pre	n/a	n/a	n/a	n/a	n/a
214.0	3.5441441689618003	8	late	em_task	n/a	n/a	n/a	n/a	116.359400323313
217.5441441689618	0.75	8	late	em_task_post	n/a	n/a	n/a	n/a	n/a
224.0	1.5	9	early	stimulus	n/a	75.0	n/a	n/a	n/a
229.5	0.5	9	early	dm_task_pre	n/a	n/a	n/a	n/a	n/a
230.0	0.739634595112875	9	early	dm_task	0.739634595112875	n/a	0.0	1.0	n/a
230.73963459511288	0.75	9	early	dm_task_post	n/a	n/a	n/a	n/a	n/a
241.5	0.5	9	early	em_task_pre	n/a	n/a	n/a	n/a	n/a
242.0	2.9339557699859	9	early	em_task	n/a	n/a	n/a	n/a	83.9077597746756
244.93395576998591	0.75	9	early	em_task_post	n/a	n/a	n/a	n/a	n/a
252.0	1.5	10	early	stimulus	n/a	90.0	n/a	n/a	n/a
257.5	0.5	10	early	dm_task_pre	n/a	n/a	n/a	n/a	n/a
258.0	0.530223521171138	10	early	dm_task	0.530223521171138	n/a	4.0	-1.0	n/a
258.53022352117114	0.75	10	early	dm_task_post	n/a	n/a	n/a	n/a	n/a
269.5	0.5	10	early	em_task_pre	n/a	n/a	n/a	n/a	n/a
270.0	1.8917970161419007	10	early	em_task	n/a	n/a	n/a	n/a	85.2327420052863
271.8917970161419	0.75	10	early	em_task_post	n/a	n/a	n/a	n/a	n/a
280.0	1.5	11	late	stimulus	n/a	142.5	n/a	n/a	n/a
291.5	0.5	11	late	dm_task_pre	n/a	n/a	n/a	n/a	n/a
292.0	0.648954077158123	11	late	dm_task	0.648954077158123	n/a	-4.0	1.0	n/a
292.6489540771581	0.75	11	late	dm_task_post	n/a	n/a	n/a	n/a	n/a
297.5	0.5	11	late	em_task_pre	n/a	n/a	n/a	n/a	n/a
298.0	2.797007979126601	11	late	em_task	n/a	n/a	n/a	n/a	146.791546366501
300.7970079791266	0.75	11	late	em_task_post	n/a	n/a	n/a	n/a	n/a
308.0	1.5	12	late	stimulus	n/a	112.5	n/a	n/a	n/a
319.5	0.5	12	late	dm_task_pre	n/a	n/a	n/a	n/a	n/a
320.0	0.539147888077423	12	late	dm_task	0.539147888077423	n/a	-4.0	1.0	n/a
320.5391478880774	0.75	12	late	dm_task_post	n/a	n/a	n/a	n/a	n/a
325.5	0.5	12	late	em_task_pre	n/a	n/a	n/a	n/a	n/a
326.0	2.6046013941523007	12	late	em_task	n/a	n/a	n/a	n/a	122.366889978249
328.6046013941523	0.75	12	late	em_task_post	n/a	n/a	n/a	n/a	n/a
