onset	duration	trial	trial_type	event_type	response_time	value_stimulus	value_reference	response_decision	response_estimation
0.0	1.5	1	late	stimulus	n/a	127.5	n/a	n/a	n/a
11.5	0.5	1	late	dm_task_pre	n/a	n/a	n/a	n/a	n/a
12.0	0.909845384012442	1	late	dm_task	0.909845384012442	n/a	-21.0	-1.0	n/a
12.909845384012442	0.75	1	late	dm_task_post	n/a	n/a	n/a	n/a	n/a
17.5	0.5	1	late	em_task_pre	n/a	n/a	n/a	n/a	n/a
18.0	1.925187870976501	1	late	em_task	n/a	n/a	n/a	n/a	125.620233152813
19.9251878709765	0.75	1	late	em_task_post	n/a	n/a	n/a	n/a	n/a
28.0	1.5	2	early	stimulus	n/a	135.0	n/a	n/a	n/a
33.5	0.5	2	early	dm_task_pre	n/a	n/a	n/a	n/a	n/a
34.0	0.900572345010005	2	early	dm_task	0.900572345010005	n/a	21.0	-1.0	n/a
34.900572345010005	0.75	2	early	dm_task_post	n/a	n/a	n/a	n/a	n/a
45.5	0.5	2	early	em_task_pre	n/a	n/a	n/a	n/a	n/a
46.0	3.114504587021699	2	early	em_task	n/a	n/a	n/a	n/a	135.272126953217
49.1145045870217	0.75	2	early	em_task_post	n/a	n/a	n/a	n/a	n/a
56.0	1.5	3	early	stimulus	n/a	22.5	n/a	n/a	n/a
61.5	0.5	3	early	dm_task_pre	n/a	n/a	n/a	n/a	n/a
62.0	0.923262363998219	3	early	dm_task	0.923262363998219	n/a	4.0	1.0	n/a
62.92326236399822	0.75	3	early	dm_task_post	n/a	n/a	n/a	n/a	n/a
73.5	0.5	3	early	em_task_pre	n/a	n/a	n/a	n/a	n/a
74.0	2.9538123509846983	3	early	em_task	n/a	n/a	n/a	n/a	31.6658686145072
76.95381235098469	0.75	3	early	em_task_post	n/a	n/a	n/a	n/a	n/a
84.0	1.5	4	early	stimulus	n/a	142.5	n/a	n/a	n/a
89.5	0.5	4	early	dm_task_pre	n/a	n/a	n/a	n/a	n/a
90.0	0.914901165000629	4	early	dm_task	0.914901165000629	n/a	0.0	-1.0	n/a
90.91490116500063	0.75	4	early	dm_task_post	n/a	n/a	n/a	n/a	n/a
101.5	0.5	4	early	em_task_pre	n/a	n/a	n/a	n/a	n/a
102.0	2.8595668050110987	4	early	em_task	n/a	n/a	n/a	n/a	134.371654158142
104.8595668050111	0.75	4	early	em_task_post	n/a	n/a	n/a	n/a	n/a
112.0	1.5	5	late	stimulus	n/a	75.0	n/a	n/a	n/a
123.5	0.5	5	late	dm_task_pre	n/a	n/a	n/a	n/a	n/a
124.0	1.2349428840098	5	late	dm_task	1.2349428840098	n/a	-4.0	-1.0	n/a
125.2349428840098	0.75	5	late	dm_task_post	n/a	n/a	n/a	n/a	n/a
129.5	0.5	5	late	em_task_pre	n/a	n/a	n/a	n/a	n/a
130.0	2.7677741399966003	5	late	em_task	n/a	n/a	n/a	n/a	74.8674033407432
132.7677741399966	0.75	5	late	em_task_post	n/a	n/a	n/a	n/a	n/a
140.0	1.5	6	early	stimulus	n/a	30.0	n/a	n/a	n/a
145.5	0.5	6	early	dm_task_pre	n/a	n/a	n/a	n/a	n/a
146.0	0.67550090100849	6	early	dm_task	0.67550090100849	n/a	21.0	-1.0	n/a
146.6755009010085	0.75	6	early	dm_task_post	n/a	n/a	n/a	n/a	n/a
157.5	0.5	6	early	em_task_pre	n/a	n/a	n/a	n/a	n/a
158.0	3.355238401971299	6	early	em_task	n/a	n/a	n/a	n/a	45.9917496599575
161.3552384019713	0.75	6	early	em_task_post	n/a	n/a	n/a	n/a	n/a
168.0	1.5	7	early	stimulus	n/a	52.5	n/a	n/a	n/a
173.5	0.5	7	early	dm_task_pre	n/a	n/a	n/a	n/a	n/a
174.0	0.766258538991679	7	early	dm_task	0.766258538991679	n/a	21.0	-1.0	n/a
174.76625853899168	0.75	7	early	dm_task_post	n/a	n/a	n/a	n/a	n/a
185.5	0.5	7	early	em_task_pre	n/a	n/a	n/a	n/a	n/a
186.0	2.4303137440001983	7	early	em_task	n/a	n/a	n/a	n/a	74.3265932007909
188.4303137440002	0.75	7	early	em_task_post	n/a	n/a	n/a	n/a	n/a
196.0	1.5	8	early	stimulus	n/a	105.0	n/a	n/a	n/a
201.5	0.5	8	early	dm_task_pre	n/a	n/a	n/a	n/a	n/a
202.0	0.774723046983127	8	early	dm_task	0.774723046983127	n/a	21.0	-1.0	n/a
202.77472304698313	0.75	8	early	dm_task_post	n/a	n/a	n/a	n/a	n/a
213.5	0.5	8	early	em_task_pre	n/a	n/a	n/a	n/a	n/a
214.0	3.5685570460045994	8	early	em_task	n/a	n/a	n/a	n/a	106.515650323313
217.5685570460046	0.75	8	early	em_task_post	n/a	n/a	n/a	n/a	n/a
224.0	1.5	9	late	stimulus	n/a	60.0	n/a	n/a	n/a
235.5	0.5	9	late	dm_task_pre	n/a	n/a	n/a	n/a	n/a
236.0	0.677063677983824	9	late	dm_task	0.677063677983824	n/a	-21.0	1.0	n/a
236.67706367798382	0.75	9	late	dm_task_post	n/a	n/a	n/a	n/a	n/a
241.5	0.5	9	late	em_task_pre	n/a	n/a	n/a	n/a	n/a
242.0	2.959350205026599	9	late	em_task	n/a	n/a	n/a	n/a	60.0015097746756
244.9593502050266	0.75	9	late	em_task_post	n/a	n/a	n/a	n/a	n/a
252.0	1.5	10	early	stimulus	n/a	120.0	n/a	n/a	n/a
257.5	0.5	10	early	dm_task_pre	n/a	n/a	n/a	n/a	n/a
258.0	0.785062881011982	10	early	dm_task	0.785062881011982	n/a	-4.0	1.0	n/a
258.785062881012	0.75	10	early	dm_task_post	n/a	n/a	n/a	n/a	n/a
269.5	0.5	10	early	em_task_pre	n/a	n/a	n/a	n/a	n/a
270.0	3.398177383991399	10	early	em_task	n/a	n/a	n/a	n/a	115.467117005286
273.3981773839914	0.75	10	early	em_task_post	n/a	n/a	n/a	n/a	n/a
280.0	1.5	11	late	stimulus	n/a	0.0	n/a	n/a	n/a
291.5	0.5	11	late	dm_task_pre	n/a	n/a	n/a	n/a	n/a
292.0	0.676081030978821	11	late	dm_task	0.676081030978821	n/a	4.0	-1.0	n/a
292.6760810309788	0.75	11	late	dm_task_post	n/a	n/a	n/a	n/a	n/a
297.5	0.5	11	late	em_task_pre	n/a	n/a	n/a	n/a	n/a
298.0	2.0715451409923986	11	late	em_task	n/a	n/a	n/a	n/a	172.807171366501
300.0715451409924	0.75	11	late	em_task_post	n/a	n/a	n/a	n/a	n/a
308.0	1.5	12	late	stimulus	n/a	112.5	n/a	n/a	n/a
319.5	0.5	12	late	dm_task_pre	n/a	n/a	n/a	n/a	n/a
320.0	0.813695079996251	12	late	dm_task	0.813695079996251	n/a	0.0	1.0	n/a
320.81369507999625	0.75	12	late	dm_task_post	n/a	n/a	n/a	n/a	n/a
325.5	0.5	12	late	em_task_pre	n/a	n/a	n/a	n/a	n/a
326.0	1.8286310959957	12	late	em_task	n/a	n/a	n/a	n/a	117.445014978249
327.8286310959957	0.75	12	late	em_task_post	n/a	n/a	n/a	n/a	n/a
