onset	duration	trial	trial_type	event_type	response_time	value_stimulus	value_reference	response_decision	response_estimation
0.0	1.5	1	late	stimulus	n/a	105.0	n/a	n/a	n/a
11.5	0.5	1	late	dm_task_pre	n/a	n/a	n/a	n/a	n/a
12.0	0.533551130999967	1	late	dm_task	0.533551130999967	n/a	-21.0	1.0	n/a
12.533551130999967	0.75	1	late	dm_task_post	n/a	n/a	n/a	n/a	n/a
17.5	0.5	1	late	em_task_pre	n/a	n/a	n/a	n/a	n/a
18.0	4.5	1	late	em_task	n/a	n/a	n/a	n/a	n/a
22.5	0.75	1	late	em_task_post	n/a	n/a	n/a	n/a	n/a
28.0	1.5	2	late	stimulus	n/a	172.5	n/a	n/a	n/a
39.5	0.5	2	late	dm_task_pre	n/a	n/a	n/a	n/a	n/a
40.0	0.571943331000057	2	late	dm_task	0.571943331000057	n/a	21.0	-1.0	n/a
40.57194333100006	0.75	2	late	dm_task_post	n/a	n/a	n/a	n/a	n/a
45.5	0.5	2	late	em_task_pre	n/a	n/a	n/a	n/a	n/a
46.0	3.1181261350001996	2	late	em_task	n/a	n/a	n/a	n/a	169.826358532313
49.118126135000196	0.75	2	late	em_task_post	n/a	n/a	n/a	n/a	n/a
56.0	1.5	3	early	stimulus	n/a	165.0	n/a	n/a	n/a
61.5	0.5	3	early	dm_task_pre	n/a	n/a	n/a	n/a	n/a
62.0	0.660402393999902	3	early	dm_task	0.660402393999902	n/a	-4.0	1.0	n/a
62.6604023939999	0.75	3	early	dm_task_post	n/a	n/a	n/a	n/a	n/a
73.5	0.5	3	early	em_task_pre	n/a	n/a	n/a	n/a	n/a
74.0	2.9056210090001997	3	early	em_task	n/a	n/a	n/a	n/a	161.208255727075
76.9056210090002	0.75	3	early	em_task_post	n/a	n/a	n/a	n/a	n/a
84.0	1.5	4	late	stimulus	n/a	7.5	n/a	n/a	n/a
95.5	0.5	4	late	dm_task_pre	n/a	n/a	n/a	n/a	n/a
96.0	0.563744188999863	4	late	dm_task	0.563744188999863	n/a	-21.0	1.0	n/a
96.56374418899986	0.75	4	late	dm_task_post	n/a	n/a	n/a	n/a	n/a
101.5	0.5	4	late	em_task_pre	n/a	n/a	n/a	n/a	n/a
102.0	3.5600680279999004	4	late	em_task	n/a	n/a	n/a	n/a	9.95731525546262
105.5600680279999	0.75	4	late	em_task_post	n/a	n/a	n/a	n/a	n/a
112.0	1.5	5	early	stimulus	n/a	67.5	n/a	n/a	n/a
117.5	0.5	5	early	dm_task_pre	n/a	n/a	n/a	n/a	n/a
118.0	0.836839272999896	5	early	dm_task	0.836839272999896	n/a	21.0	-1.0	n/a
118.8368392729999	0.75	5	early	dm_task_post	n/a	n/a	n/a	n/a	n/a
129.5	0.5	5	early	em_task_pre	n/a	n/a	n/a	n/a	n/a
130.0	3.4637968020002	5	early	em_task	n/a	n/a	n/a	n/a	79.4915138949424
133.4637968020002	0.75	5	early	em_task_post	n/a	n/a	n/a	n/a	n/a
140.0	1.5	6	late	stimulus	n/a	37.5	n/a	n/a	n/a
151.5	0.5	6	late	dm_task_pre	n/a	n/a	n/a	n/a	n/a
152.0	0.611026267999932	6	late	dm_task	0.611026267999932	n/a	-4.0	1.0	n/a
152.61102626799993	0.75	6	late	dm_task_post	n/a	n/a	n/a	n/a	n/a
157.5	0.5	6	late	em_task_pre	n/a	n/a	n/a	n/a	n/a
158.0	3.9200731999999014	6	late	em_task	n/a	n/a	n/a	n/a	55.1181592623735
161.9200731999999	0.75	6	late	em_task_post	n/a	n/a	n/a	n/a	n/a
168.0	1.5	7	late	stimulus	n/a	52.5	n/a	n/a	n/a
179.5	0.5	7	late	dm_task_pre	n/a	n/a	n/a	n/a	n/a
180.0	0.904152777000036	7	late	dm_task	0.904152777000036	n/a	21.0	-1.0	n/a
180.90415277700004	0.75	7	late	dm_task_post	n/a	n/a	n/a	n/a	n/a
185.5	0.5	7	late	em_task_pre	n/a	n/a	n/a	n/a	n/a
186.0	3.3288371740000002	7	late	em_task	n/a	n/a	n/a	n/a	57.6557335133333
189.328837174	0.75	7	late	em_task_post	n/a	n/a	n/a	n/a	n/a
196.0	1.5	8	late	stimulus	n/a	75.0	n/a	n/a	n/a
207.5	0.5	8	late	dm_task_pre	n/a	n/a	n/a	n/a	n/a
208.0	0.982304621999901	8	late	dm_task	0.982304621999901	n/a	4.0	-1.0	n/a
208.9823046219999	0.75	8	late	dm_task_post	n/a	n/a	n/a	n/a	n/a
213.5	0.5	8	late	em_task_pre	n/a	n/a	n/a	n/a	n/a
214.0	1.6936793350000983	8	late	em_task	n/a	n/a	n/a	n/a	63.9954714298795
215.6936793350001	0.75	8	late	em_task_post	n/a	n/a	n/a	n/a	n/a
224.0	1.5	9	early	stimulus	n/a	15.0	n/a	n/a	n/a
229.5	0.5	9	early	dm_task_pre	n/a	n/a	n/a	n/a	n/a
230.0	1.17073741800004	9	early	dm_task	1.17073741800004	n/a	4.0	-1.0	n/a
231.17073741800004	0.75	9	early	dm_task_post	n/a	n/a	n/a	n/a	n/a
241.5	0.5	9	early	em_task_pre	n/a	n/a	n/a	n/a	n/a
242.0	4.364581030999901	9	early	em_task	n/a	n/a	n/a	n/a	14.6908356515335
246.3645810309999	0.75	9	early	em_task_post	n/a	n/a	n/a	n/a	n/a
252.0	1.5	10	late	stimulus	n/a	0.0	n/a	n/a	n/a
263.5	0.5	10	late	dm_task_pre	n/a	n/a	n/a	n/a	n/a
264.0	0.605836726000234	10	late	dm_task	0.605836726000234	n/a	-4.0	1.0	n/a
264.60583672600023	0.75	10	late	dm_task_post	n/a	n/a	n/a	n/a	n/a
269.5	0.5	10	late	em_task_pre	n/a	n/a	n/a	n/a	n/a
270.0	4.5	10	late	em_task	n/a	n/a	n/a	n/a	n/a
274.5	0.75	10	late	em_task_post	n/a	n/a	n/a	n/a	n/a
280.0	1.5	11	early	stimulus	n/a	60.0	n/a	n/a	n/a
285.5	0.5	11	early	dm_task_pre	n/a	n/a	n/a	n/a	n/a
286.0	0.653921874999924	11	early	dm_task	0.653921874999924	n/a	-4.0	-1.0	n/a
286.6539218749999	0.75	11	early	dm_task_post	n/a	n/a	n/a	n/a	n/a
297.5	0.5	11	early	em_task_pre	n/a	n/a	n/a	n/a	n/a
298.0	3.0234998579999015	11	early	em_task	n/a	n/a	n/a	n/a	60.7874723936603
301.0234998579999	0.75	11	early	em_task_post	n/a	n/a	n/a	n/a	n/a
308.0	1.5	12	early	stimulus	n/a	150.0	n/a	n/a	n/a
313.5	0.5	12	early	dm_task_pre	n/a	n/a	n/a	n/a	n/a
314.0	0.51658149800005	12	early	dm_task	0.51658149800005	n/a	21.0	-1.0	n/a
314.51658149800005	0.75	12	early	dm_task_post	n/a	n/a	n/a	n/a	n/a
325.5	0.5	12	early	em_task_pre	n/a	n/a	n/a	n/a	n/a
326.0	2.432687341000001	12	early	em_task	n/a	n/a	n/a	n/a	137.695185212433
328.432687341	0.75	12	early	em_task_post	n/a	n/a	n/a	n/a	n/a
