onset	duration	trial	trial_type	event_type	response_time	value_stimulus	value_reference	response_decision	response_estimation
0.0	1.5	1	early	stimulus	n/a	52.5	n/a	n/a	n/a
5.5	0.5	1	early	dm_task_pre	n/a	n/a	n/a	n/a	n/a
6.0	0.556346767999912	1	early	dm_task	0.556346767999912	n/a	-4.0	-1.0	n/a
6.556346767999912	0.75	1	early	dm_task_post	n/a	n/a	n/a	n/a	n/a
17.5	0.5	1	early	em_task_pre	n/a	n/a	n/a	n/a	n/a
18.0	1.5020307579998011	1	early	em_task	n/a	n/a	n/a	n/a	60.4447325238147
19.5020307579998	0.75	1	early	em_task_post	n/a	n/a	n/a	n/a	n/a
28.0	1.5	2	late	stimulus	n/a	112.5	n/a	n/a	n/a
39.5	0.5	2	late	dm_task_pre	n/a	n/a	n/a	n/a	n/a
40.0	0.658498534000046	2	late	dm_task	0.658498534000046	n/a	-4.0	1.0	n/a
40.658498534000046	0.75	2	late	dm_task_post	n/a	n/a	n/a	n/a	n/a
45.5	0.5	2	late	em_task_pre	n/a	n/a	n/a	n/a	n/a
46.0	1.8716947140000997	2	late	em_task	n/a	n/a	n/a	n/a	108.20713294292
47.8716947140001	0.75	2	late	em_task_post	n/a	n/a	n/a	n/a	n/a
56.0	1.5	3	late	stimulus	n/a	7.5	n/a	n/a	n/a
67.5	0.5	3	late	dm_task_pre	n/a	n/a	n/a	n/a	n/a
68.0	0.639673113999834	3	late	dm_task	0.639673113999834	n/a	21.0	-1.0	n/a
68.63967311399983	0.75	3	late	dm_task_post	n/a	n/a	n/a	n/a	n/a
73.5	0.5	3	late	em_task_pre	n/a	n/a	n/a	n/a	n/a
74.0	2.159629439000099	3	late	em_task	n/a	n/a	n/a	n/a	11.7376531194544
76.1596294390001	0.75	3	late	em_task_post	n/a	n/a	n/a	n/a	n/a
84.0	1.5	4	early	stimulus	n/a	172.5	n/a	n/a	n/a
89.5	0.5	4	early	dm_task_pre	n/a	n/a	n/a	n/a	n/a
90.0	0.63941666799974	4	early	dm_task	0.63941666799974	n/a	21.0	-1.0	n/a
90.63941666799974	0.75	4	early	dm_task_post	n/a	n/a	n/a	n/a	n/a
101.5	0.5	4	early	em_task_pre	n/a	n/a	n/a	n/a	n/a
102.0	3.047893213999899	4	early	em_task	n/a	n/a	n/a	n/a	166.919604267326
105.0478932139999	0.75	4	early	em_task_post	n/a	n/a	n/a	n/a	n/a
112.0	1.5	5	early	stimulus	n/a	67.5	n/a	n/a	n/a
117.5	0.5	5	early	dm_task_pre	n/a	n/a	n/a	n/a	n/a
118.0	0.900868959000036	5	early	dm_task	0.900868959000036	n/a	4.0	1.0	n/a
118.90086895900004	0.75	5	early	dm_task_post	n/a	n/a	n/a	n/a	n/a
129.5	0.5	5	early	em_task_pre	n/a	n/a	n/a	n/a	n/a
130.0	2.3172793859998997	5	early	em_task	n/a	n/a	n/a	n/a	66.6293734849968
132.3172793859999	0.75	5	early	em_task_post	n/a	n/a	n/a	n/a	n/a
140.0	1.5	6	late	stimulus	n/a	142.5	n/a	n/a	n/a
151.5	0.5	6	late	dm_task_pre	n/a	n/a	n/a	n/a	n/a
152.0	0.802498487999856	6	late	dm_task	0.802498487999856	n/a	-4.0	1.0	n/a
152.80249848799986	0.75	6	late	dm_task_post	n/a	n/a	n/a	n/a	n/a
157.5	0.5	6	late	em_task_pre	n/a	n/a	n/a	n/a	n/a
158.0	3.4224279499999	6	late	em_task	n/a	n/a	n/a	n/a	156.121051566094
161.4224279499999	0.75	6	late	em_task_post	n/a	n/a	n/a	n/a	n/a
168.0	1.5	7	late	stimulus	n/a	150.0	n/a	n/a	n/a
179.5	0.5	7	late	dm_task_pre	n/a	n/a	n/a	n/a	n/a
180.0	0.785075332999895	7	late	dm_task	0.785075332999895	n/a	0.0	1.0	n/a
180.7850753329999	0.75	7	late	dm_task_post	n/a	n/a	n/a	n/a	n/a
185.5	0.5	7	late	em_task_pre	n/a	n/a	n/a	n/a	n/a
186.0	3.5171319870000985	7	late	em_task	n/a	n/a	n/a	n/a	150.218086195636
189.51713198700008	0.75	7	late	em_task_post	n/a	n/a	n/a	n/a	n/a
196.0	1.5	8	early	stimulus	n/a	120.0	n/a	n/a	n/a
201.5	0.5	8	early	dm_task_pre	n/a	n/a	n/a	n/a	n/a
202.0	0.641236469999967	8	early	dm_task	0.641236469999967	n/a	-21.0	1.0	n/a
202.64123646999997	0.75	8	early	dm_task_post	n/a	n/a	n/a	n/a	n/a
213.5	0.5	8	early	em_task_pre	n/a	n/a	n/a	n/a	n/a
214.0	2.5523696209998015	8	early	em_task	n/a	n/a	n/a	n/a	119.589436832486
216.5523696209998	0.75	8	early	em_task_post	n/a	n/a	n/a	n/a	n/a
224.0	1.5	9	early	stimulus	n/a	75.0	n/a	n/a	n/a
229.5	0.5	9	early	dm_task_pre	n/a	n/a	n/a	n/a	n/a
230.0	0.757146623000153	9	early	dm_task	0.757146623000153	n/a	-21.0	1.0	n/a
230.75714662300015	0.75	9	early	dm_task_post	n/a	n/a	n/a	n/a	n/a
241.5	0.5	9	early	em_task_pre	n/a	n/a	n/a	n/a	n/a
242.0	2.1859947749999016	9	early	em_task	n/a	n/a	n/a	n/a	68.1125650882366
244.1859947749999	0.75	9	early	em_task_post	n/a	n/a	n/a	n/a	n/a
252.0	1.5	10	early	stimulus	n/a	22.5	n/a	n/a	n/a
257.5	0.5	10	early	dm_task_pre	n/a	n/a	n/a	n/a	n/a
258.0	0.81118676799997	10	early	dm_task	0.81118676799997	n/a	-21.0	1.0	n/a
258.81118676799997	0.75	10	early	dm_task_post	n/a	n/a	n/a	n/a	n/a
269.5	0.5	10	early	em_task_pre	n/a	n/a	n/a	n/a	n/a
270.0	2.351471908999901	10	early	em_task	n/a	n/a	n/a	n/a	6.38679522779989
272.3514719089999	0.75	10	early	em_task_post	n/a	n/a	n/a	n/a	n/a
280.0	1.5	11	late	stimulus	n/a	165.0	n/a	n/a	n/a
291.5	0.5	11	late	dm_task_pre	n/a	n/a	n/a	n/a	n/a
292.0	1.04600246700011	11	late	dm_task	1.04600246700011	n/a	-4.0	-1.0	n/a
293.0460024670001	0.75	11	late	dm_task_post	n/a	n/a	n/a	n/a	n/a
297.5	0.5	11	late	em_task_pre	n/a	n/a	n/a	n/a	n/a
298.0	3.0709908059997986	11	late	em_task	n/a	n/a	n/a	n/a	161.708065583381
301.0709908059998	0.75	11	late	em_task_post	n/a	n/a	n/a	n/a	n/a
308.0	1.5	12	late	stimulus	n/a	0.0	n/a	n/a	n/a
319.5	0.5	12	late	dm_task_pre	n/a	n/a	n/a	n/a	n/a
320.0	1.22218952200001	12	late	dm_task	1.22218952200001	n/a	-21.0	1.0	n/a
321.222189522	0.75	12	late	dm_task_post	n/a	n/a	n/a	n/a	n/a
325.5	0.5	12	late	em_task_pre	n/a	n/a	n/a	n/a	n/a
326.0	2.734067195000101	12	late	em_task	n/a	n/a	n/a	n/a	179.65155572232
328.7340671950001	0.75	12	late	em_task_post	n/a	n/a	n/a	n/a	n/a
