onset	duration	trial	trial_type	event_type	response_time	value_stimulus	value_reference	response_decision	response_estimation
0.0	1.5	1	early	stimulus	n/a	120.0	n/a	n/a	n/a
5.5	0.5	1	early	dm_task_pre	n/a	n/a	n/a	n/a	n/a
6.0	0.887023726012558	1	early	dm_task	0.887023726012558	n/a	21.0	-1.0	n/a
6.887023726012558	0.75	1	early	dm_task_post	n/a	n/a	n/a	n/a	n/a
17.5	0.5	1	early	em_task_pre	n/a	n/a	n/a	n/a	n/a
18.0	3.4651037941221006	1	early	em_task	n/a	n/a	n/a	n/a	126.945990541409
21.4651037941221	0.75	1	early	em_task_post	n/a	n/a	n/a	n/a	n/a
28.0	1.5	2	late	stimulus	n/a	67.5	n/a	n/a	n/a
39.5	0.5	2	late	dm_task_pre	n/a	n/a	n/a	n/a	n/a
40.0	0.825292275985703	2	late	dm_task	0.825292275985703	n/a	4.0	-1.0	n/a
40.8252922759857	0.75	2	late	dm_task_post	n/a	n/a	n/a	n/a	n/a
45.5	0.5	2	late	em_task_pre	n/a	n/a	n/a	n/a	n/a
46.0	3.6056793951429	2	late	em_task	n/a	n/a	n/a	n/a	60.2921761460803
49.6056793951429	0.75	2	late	em_task_post	n/a	n/a	n/a	n/a	n/a
56.0	1.5	3	early	stimulus	n/a	22.5	n/a	n/a	n/a
61.5	0.5	3	early	dm_task_pre	n/a	n/a	n/a	n/a	n/a
62.0	0.933635101187974	3	early	dm_task	0.933635101187974	n/a	-4.0	1.0	n/a
62.933635101187974	0.75	3	early	dm_task_post	n/a	n/a	n/a	n/a	n/a
73.5	0.5	3	early	em_task_pre	n/a	n/a	n/a	n/a	n/a
74.0	2.911691038170801	3	early	em_task	n/a	n/a	n/a	n/a	35.7193292986085
76.9116910381708	0.75	3	early	em_task_post	n/a	n/a	n/a	n/a	n/a
84.0	1.5	4	late	stimulus	n/a	0.0	n/a	n/a	n/a
95.5	0.5	4	late	dm_task_pre	n/a	n/a	n/a	n/a	n/a
96.0	1.37107013398781	4	late	dm_task	1.37107013398781	n/a	4.0	-1.0	n/a
97.37107013398781	0.75	4	late	dm_task_post	n/a	n/a	n/a	n/a	n/a
101.5	0.5	4	late	em_task_pre	n/a	n/a	n/a	n/a	n/a
102.0	4.5	4	late	em_task	n/a	n/a	n/a	n/a	n/a
106.5	0.75	4	late	em_task_post	n/a	n/a	n/a	n/a	n/a
112.0	1.5	5	late	stimulus	n/a	37.5	n/a	n/a	n/a
123.5	0.5	5	late	dm_task_pre	n/a	n/a	n/a	n/a	n/a
124.0	0.628335640998557	5	late	dm_task	0.628335640998557	n/a	21.0	-1.0	n/a
124.62833564099856	0.75	5	late	dm_task_post	n/a	n/a	n/a	n/a	n/a
129.5	0.5	5	late	em_task_pre	n/a	n/a	n/a	n/a	n/a
130.0	2.6252050690819004	5	late	em_task	n/a	n/a	n/a	n/a	20.9275407663098
132.62520506908191	0.75	5	late	em_task_post	n/a	n/a	n/a	n/a	n/a
140.0	1.5	6	early	stimulus	n/a	15.0	n/a	n/a	n/a
145.5	0.5	6	early	dm_task_pre	n/a	n/a	n/a	n/a	n/a
146.0	0.702673446154222	6	early	dm_task	0.702673446154222	n/a	-4.0	1.0	n/a
146.70267344615422	0.75	6	early	dm_task_post	n/a	n/a	n/a	n/a	n/a
157.5	0.5	6	early	em_task_pre	n/a	n/a	n/a	n/a	n/a
158.0	2.7984426610636994	6	early	em_task	n/a	n/a	n/a	n/a	14.7892915309388
160.7984426610637	0.75	6	early	em_task_post	n/a	n/a	n/a	n/a	n/a
168.0	1.5	7	late	stimulus	n/a	157.5	n/a	n/a	n/a
179.5	0.5	7	late	dm_task_pre	n/a	n/a	n/a	n/a	n/a
180.0	0.956848012050614	7	late	dm_task	0.956848012050614	n/a	-4.0	-1.0	n/a
180.9568480120506	0.75	7	late	dm_task_post	n/a	n/a	n/a	n/a	n/a
185.5	0.5	7	late	em_task_pre	n/a	n/a	n/a	n/a	n/a
186.0	2.5884934640490016	7	late	em_task	n/a	n/a	n/a	n/a	144.468239837297
188.588493464049	0.75	7	late	em_task_post	n/a	n/a	n/a	n/a	n/a
196.0	1.5	8	early	stimulus	n/a	105.0	n/a	n/a	n/a
201.5	0.5	8	early	dm_task_pre	n/a	n/a	n/a	n/a	n/a
202.0	0.832354682032019	8	early	dm_task	0.832354682032019	n/a	-4.0	1.0	n/a
202.83235468203202	0.75	8	early	dm_task_post	n/a	n/a	n/a	n/a	n/a
213.5	0.5	8	early	em_task_pre	n/a	n/a	n/a	n/a	n/a
214.0	2.8620809370186002	8	early	em_task	n/a	n/a	n/a	n/a	117.583107249517
216.8620809370186	0.75	8	early	em_task_post	n/a	n/a	n/a	n/a	n/a
224.0	1.5	9	late	stimulus	n/a	142.5	n/a	n/a	n/a
235.5	0.5	9	late	dm_task_pre	n/a	n/a	n/a	n/a	n/a
236.0	0.570449856109917	9	late	dm_task	0.570449856109917	n/a	-21.0	1.0	n/a
236.57044985610992	0.75	9	late	dm_task_post	n/a	n/a	n/a	n/a	n/a
241.5	0.5	9	late	em_task_pre	n/a	n/a	n/a	n/a	n/a
242.0	2.633967451052701	9	late	em_task	n/a	n/a	n/a	n/a	131.797235655623
244.6339674510527	0.75	9	late	em_task_post	n/a	n/a	n/a	n/a	n/a
252.0	1.5	10	late	stimulus	n/a	97.5	n/a	n/a	n/a
263.5	0.5	10	late	dm_task_pre	n/a	n/a	n/a	n/a	n/a
264.0	0.76065201102756	10	late	dm_task	0.76065201102756	n/a	0.0	1.0	n/a
264.76065201102756	0.75	10	late	dm_task_post	n/a	n/a	n/a	n/a	n/a
269.5	0.5	10	late	em_task_pre	n/a	n/a	n/a	n/a	n/a
270.0	2.823514768155299	10	late	em_task	n/a	n/a	n/a	n/a	135.585222771055
272.8235147681553	0.75	10	late	em_task_post	n/a	n/a	n/a	n/a	n/a
280.0	1.5	11	early	stimulus	n/a	60.0	n/a	n/a	n/a
285.5	0.5	11	early	dm_task_pre	n/a	n/a	n/a	n/a	n/a
286.0	0.901256468147039	11	early	dm_task	0.901256468147039	n/a	-4.0	-1.0	n/a
286.90125646814704	0.75	11	early	dm_task_post	n/a	n/a	n/a	n/a	n/a
297.5	0.5	11	early	em_task_pre	n/a	n/a	n/a	n/a	n/a
298.0	2.8803541890810997	11	early	em_task	n/a	n/a	n/a	n/a	58.0519962780694
300.8803541890811	0.75	11	early	em_task_post	n/a	n/a	n/a	n/a	n/a
308.0	1.5	12	early	stimulus	n/a	165.0	n/a	n/a	n/a
313.5	0.5	12	early	dm_task_pre	n/a	n/a	n/a	n/a	n/a
314.0	0.992344690021127	12	early	dm_task	0.992344690021127	n/a	21.0	-1.0	n/a
314.9923446900211	0.75	12	early	dm_task_post	n/a	n/a	n/a	n/a	n/a
325.5	0.5	12	early	em_task_pre	n/a	n/a	n/a	n/a	n/a
326.0	3.3539809170179	12	early	em_task	n/a	n/a	n/a	n/a	162.93890377101
329.3539809170179	0.75	12	early	em_task_post	n/a	n/a	n/a	n/a	n/a
