onset	duration	trial	trial_type	event_type	response_time	value_stimulus	value_reference	response_decision	response_estimation
0.0	1.5	1	late	stimulus	n/a	127.5	n/a	n/a	n/a
11.5	0.5	1	late	dm_task_pre	n/a	n/a	n/a	n/a	n/a
12.0	0.700316347996704	1	late	dm_task	0.700316347996704	n/a	-21.0	1.0	n/a
12.700316347996704	0.75	1	late	dm_task_post	n/a	n/a	n/a	n/a	n/a
17.5	0.5	1	late	em_task_pre	n/a	n/a	n/a	n/a	n/a
18.0	1.4363323979778002	1	late	em_task	n/a	n/a	n/a	n/a	118.024314704718
19.4363323979778	0.75	1	late	em_task_post	n/a	n/a	n/a	n/a	n/a
28.0	1.5	2	early	stimulus	n/a	135.0	n/a	n/a	n/a
33.5	0.5	2	early	dm_task_pre	n/a	n/a	n/a	n/a	n/a
34.0	0.674063162994571	2	early	dm_task	0.674063162994571	n/a	0.0	-1.0	n/a
34.67406316299457	0.75	2	early	dm_task_post	n/a	n/a	n/a	n/a	n/a
45.5	0.5	2	early	em_task_pre	n/a	n/a	n/a	n/a	n/a
46.0	3.5630056699738013	2	early	em_task	n/a	n/a	n/a	n/a	140.704456952792
49.563005669973805	0.75	2	early	em_task_post	n/a	n/a	n/a	n/a	n/a
56.0	1.5	3	late	stimulus	n/a	165.0	n/a	n/a	n/a
67.5	0.5	3	late	dm_task_pre	n/a	n/a	n/a	n/a	n/a
68.0	0.734808915993199	3	late	dm_task	0.734808915993199	n/a	-21.0	1.0	n/a
68.7348089159932	0.75	3	late	dm_task_post	n/a	n/a	n/a	n/a	n/a
73.5	0.5	3	late	em_task_pre	n/a	n/a	n/a	n/a	n/a
74.0	3.453949071990799	3	late	em_task	n/a	n/a	n/a	n/a	155.081780967983
77.45394907199079	0.75	3	late	em_task_post	n/a	n/a	n/a	n/a	n/a
84.0	1.5	4	early	stimulus	n/a	45.0	n/a	n/a	n/a
89.5	0.5	4	early	dm_task_pre	n/a	n/a	n/a	n/a	n/a
90.0	1.12540357199032	4	early	dm_task	1.12540357199032	n/a	0.0	1.0	n/a
91.12540357199032	0.75	4	early	dm_task_post	n/a	n/a	n/a	n/a	n/a
101.5	0.5	4	early	em_task_pre	n/a	n/a	n/a	n/a	n/a
102.0	3.0967068299651004	4	early	em_task	n/a	n/a	n/a	n/a	49.3972403987488
105.0967068299651	0.75	4	early	em_task_post	n/a	n/a	n/a	n/a	n/a
112.0	1.5	5	late	stimulus	n/a	105.0	n/a	n/a	n/a
123.5	0.5	5	late	dm_task_pre	n/a	n/a	n/a	n/a	n/a
124.0	0.603655278973747	5	late	dm_task	0.603655278973747	n/a	0.0	1.0	n/a
124.60365527897375	0.75	5	late	dm_task_post	n/a	n/a	n/a	n/a	n/a
129.5	0.5	5	late	em_task_pre	n/a	n/a	n/a	n/a	n/a
130.0	2.5887514329515007	5	late	em_task	n/a	n/a	n/a	n/a	102.462500725848
132.5887514329515	0.75	5	late	em_task_post	n/a	n/a	n/a	n/a	n/a
140.0	1.5	6	late	stimulus	n/a	75.0	n/a	n/a	n/a
151.5	0.5	6	late	dm_task_pre	n/a	n/a	n/a	n/a	n/a
152.0	0.545686066965573	6	late	dm_task	0.545686066965573	n/a	21.0	-1.0	n/a
152.54568606696557	0.75	6	late	dm_task_post	n/a	n/a	n/a	n/a	n/a
157.5	0.5	6	late	em_task_pre	n/a	n/a	n/a	n/a	n/a
158.0	3.747930592973699	6	late	em_task	n/a	n/a	n/a	n/a	58.0378685180071
161.7479305929737	0.75	6	late	em_task_post	n/a	n/a	n/a	n/a	n/a
168.0	1.5	7	early	stimulus	n/a	37.5	n/a	n/a	n/a
173.5	0.5	7	early	dm_task_pre	n/a	n/a	n/a	n/a	n/a
174.0	0.937557115976233	7	early	dm_task	0.937557115976233	n/a	4.0	1.0	n/a
174.93755711597623	0.75	7	early	dm_task_post	n/a	n/a	n/a	n/a	n/a
185.5	0.5	7	early	em_task_pre	n/a	n/a	n/a	n/a	n/a
186.0	3.9257164079463003	7	early	em_task	n/a	n/a	n/a	n/a	57.5721482165483
189.9257164079463	0.75	7	early	em_task_post	n/a	n/a	n/a	n/a	n/a
196.0	1.5	8	early	stimulus	n/a	97.5	n/a	n/a	n/a
201.5	0.5	8	early	dm_task_pre	n/a	n/a	n/a	n/a	n/a
202.0	0.677586065954529	8	early	dm_task	0.677586065954529	n/a	-4.0	1.0	n/a
202.67758606595453	0.75	8	early	dm_task_post	n/a	n/a	n/a	n/a	n/a
213.5	0.5	8	early	em_task_pre	n/a	n/a	n/a	n/a	n/a
214.0	3.017912628944	8	early	em_task	n/a	n/a	n/a	n/a	98.8812601592054
217.017912628944	0.75	8	early	em_task_post	n/a	n/a	n/a	n/a	n/a
224.0	1.5	9	late	stimulus	n/a	60.0	n/a	n/a	n/a
235.5	0.5	9	late	dm_task_pre	n/a	n/a	n/a	n/a	n/a
236.0	0.505538782977965	9	late	dm_task	0.505538782977965	n/a	-21.0	1.0	n/a
236.50553878297796	0.75	9	late	dm_task_post	n/a	n/a	n/a	n/a	n/a
241.5	0.5	9	late	em_task_pre	n/a	n/a	n/a	n/a	n/a
242.0	1.5762710579437993	9	late	em_task	n/a	n/a	n/a	n/a	59.1715427013967
243.5762710579438	0.75	9	late	em_task_post	n/a	n/a	n/a	n/a	n/a
252.0	1.5	10	early	stimulus	n/a	120.0	n/a	n/a	n/a
257.5	0.5	10	early	dm_task_pre	n/a	n/a	n/a	n/a	n/a
258.0	0.681000317970756	10	early	dm_task	0.681000317970756	n/a	0.0	1.0	n/a
258.68100031797076	0.75	10	early	dm_task_post	n/a	n/a	n/a	n/a	n/a
269.5	0.5	10	early	em_task_pre	n/a	n/a	n/a	n/a	n/a
270.0	3.7354154109488995	10	early	em_task	n/a	n/a	n/a	n/a	129.272478129853
273.7354154109489	0.75	10	early	em_task_post	n/a	n/a	n/a	n/a	n/a
280.0	1.5	11	early	stimulus	n/a	7.5	n/a	n/a	n/a
285.5	0.5	11	early	dm_task_pre	n/a	n/a	n/a	n/a	n/a
286.0	0.622475113952532	11	early	dm_task	0.622475113952532	n/a	21.0	-1.0	n/a
286.62247511395253	0.75	11	early	dm_task_post	n/a	n/a	n/a	n/a	n/a
297.5	0.5	11	early	em_task_pre	n/a	n/a	n/a	n/a	n/a
298.0	2.8268562079756983	11	early	em_task	n/a	n/a	n/a	n/a	13.352513808817
300.8268562079757	0.75	11	early	em_task_post	n/a	n/a	n/a	n/a	n/a
308.0	1.5	12	late	stimulus	n/a	157.5	n/a	n/a	n/a
319.5	0.5	12	late	dm_task_pre	n/a	n/a	n/a	n/a	n/a
320.0	1.06797175796237	12	late	dm_task	1.06797175796237	n/a	-4.0	1.0	n/a
321.06797175796237	0.75	12	late	dm_task_post	n/a	n/a	n/a	n/a	n/a
325.5	0.5	12	late	em_task_pre	n/a	n/a	n/a	n/a	n/a
326.0	2.1697117789880984	12	late	em_task	n/a	n/a	n/a	n/a	146.229912184766
328.1697117789881	0.75	12	late	em_task_post	n/a	n/a	n/a	n/a	n/a
