onset	duration	trial	trial_type	event_type	response_time	value_stimulus	value_reference	response_decision	response_estimation
0.0	1.5	1	early	stimulus	n/a	45.0	n/a	n/a	n/a
5.5	0.5	1	early	dm_task_pre	n/a	n/a	n/a	n/a	n/a
6.0	1.5	1	early	dm_task	n/a	n/a	21.0	n/a	n/a
7.5	0.75	1	early	dm_task_post	n/a	n/a	n/a	n/a	n/a
17.5	0.5	1	early	em_task_pre	n/a	n/a	n/a	n/a	n/a
18.0	4.5	1	early	em_task	n/a	n/a	n/a	n/a	n/a
22.5	0.75	1	early	em_task_post	n/a	n/a	n/a	n/a	n/a
28.0	1.5	2	early	stimulus	n/a	52.5	n/a	n/a	n/a
33.5	0.5	2	early	dm_task_pre	n/a	n/a	n/a	n/a	n/a
34.0	1.04238047602121	2	early	dm_task	1.04238047602121	n/a	0.0	1.0	n/a
35.04238047602121	0.75	2	early	dm_task_post	n/a	n/a	n/a	n/a	n/a
45.5	0.5	2	early	em_task_pre	n/a	n/a	n/a	n/a	n/a
46.0	1.9638546920031992	2	early	em_task	n/a	n/a	n/a	n/a	55.115876953217
47.963854692003196	0.75	2	early	em_task_post	n/a	n/a	n/a	n/a	n/a
56.0	1.5	3	early	stimulus	n/a	135.0	n/a	n/a	n/a
61.5	0.5	3	early	dm_task_pre	n/a	n/a	n/a	n/a	n/a
62.0	0.668078373011667	3	early	dm_task	0.668078373011667	n/a	-21.0	1.0	n/a
62.66807837301167	0.75	3	early	dm_task_post	n/a	n/a	n/a	n/a	n/a
73.5	0.5	3	early	em_task_pre	n/a	n/a	n/a	n/a	n/a
74.0	3.9066229650052016	3	early	em_task	n/a	n/a	n/a	n/a	137.837743614507
77.9066229650052	0.75	3	early	em_task_post	n/a	n/a	n/a	n/a	n/a
84.0	1.5	4	late	stimulus	n/a	120.0	n/a	n/a	n/a
95.5	0.5	4	late	dm_task_pre	n/a	n/a	n/a	n/a	n/a
96.0	0.679104078037199	4	late	dm_task	0.679104078037199	n/a	21.0	-1.0	n/a
96.6791040780372	0.75	4	late	dm_task_post	n/a	n/a	n/a	n/a	n/a
101.5	0.5	4	late	em_task_pre	n/a	n/a	n/a	n/a	n/a
102.0	4.5	4	late	em_task	n/a	n/a	n/a	n/a	n/a
106.5	0.75	4	late	em_task_post	n/a	n/a	n/a	n/a	n/a
112.0	1.5	5	late	stimulus	n/a	165.0	n/a	n/a	n/a
123.5	0.5	5	late	dm_task_pre	n/a	n/a	n/a	n/a	n/a
124.0	0.822005275054835	5	late	dm_task	0.822005275054835	n/a	0.0	-1.0	n/a
124.82200527505483	0.75	5	late	dm_task_post	n/a	n/a	n/a	n/a	n/a
129.5	0.5	5	late	em_task_pre	n/a	n/a	n/a	n/a	n/a
130.0	2.6257176560466	5	late	em_task	n/a	n/a	n/a	n/a	159.945528340743
132.6257176560466	0.75	5	late	em_task_post	n/a	n/a	n/a	n/a	n/a
140.0	1.5	6	early	stimulus	n/a	7.5	n/a	n/a	n/a
145.5	0.5	6	early	dm_task_pre	n/a	n/a	n/a	n/a	n/a
146.0	0.829293494054582	6	early	dm_task	0.829293494054582	n/a	0.0	-1.0	n/a
146.82929349405458	0.75	6	early	dm_task_post	n/a	n/a	n/a	n/a	n/a
157.5	0.5	6	early	em_task_pre	n/a	n/a	n/a	n/a	n/a
158.0	3.600277067045699	6	early	em_task	n/a	n/a	n/a	n/a	10.1323746599576
161.6002770670457	0.75	6	early	em_task_post	n/a	n/a	n/a	n/a	n/a
168.0	1.5	7	late	stimulus	n/a	105.0	n/a	n/a	n/a
179.5	0.5	7	late	dm_task_pre	n/a	n/a	n/a	n/a	n/a
180.0	0.89057057001628	7	late	dm_task	0.89057057001628	n/a	4.0	-1.0	n/a
180.89057057001628	0.75	7	late	dm_task_post	n/a	n/a	n/a	n/a	n/a
185.5	0.5	7	late	em_task_pre	n/a	n/a	n/a	n/a	n/a
186.0	3.6773355110199013	7	late	em_task	n/a	n/a	n/a	n/a	99.6390932007909
189.6773355110199	0.75	7	late	em_task_post	n/a	n/a	n/a	n/a	n/a
196.0	1.5	8	late	stimulus	n/a	90.0	n/a	n/a	n/a
207.5	0.5	8	late	dm_task_pre	n/a	n/a	n/a	n/a	n/a
208.0	1.01559485803591	8	late	dm_task	1.01559485803591	n/a	-4.0	1.0	n/a
209.0155948580359	0.75	8	late	dm_task_post	n/a	n/a	n/a	n/a	n/a
213.5	0.5	8	late	em_task_pre	n/a	n/a	n/a	n/a	n/a
214.0	3.3364893930266	8	late	em_task	n/a	n/a	n/a	n/a	74.875025323313
217.3364893930266	0.75	8	late	em_task_post	n/a	n/a	n/a	n/a	n/a
224.0	1.5	9	late	stimulus	n/a	127.5	n/a	n/a	n/a
235.5	0.5	9	late	dm_task_pre	n/a	n/a	n/a	n/a	n/a
236.0	0.97388118802337	9	late	dm_task	0.97388118802337	n/a	21.0	-1.0	n/a
236.97388118802337	0.75	9	late	dm_task_post	n/a	n/a	n/a	n/a	n/a
241.5	0.5	9	late	em_task_pre	n/a	n/a	n/a	n/a	n/a
242.0	2.1606462660129004	9	late	em_task	n/a	n/a	n/a	n/a	145.079634774676
244.1606462660129	0.75	9	late	em_task_post	n/a	n/a	n/a	n/a	n/a
252.0	1.5	10	late	stimulus	n/a	67.5	n/a	n/a	n/a
263.5	0.5	10	late	dm_task_pre	n/a	n/a	n/a	n/a	n/a
264.0	0.650361811043695	10	late	dm_task	0.650361811043695	n/a	0.0	-1.0	n/a
264.6503618110437	0.75	10	late	dm_task_post	n/a	n/a	n/a	n/a	n/a
269.5	0.5	10	late	em_task_pre	n/a	n/a	n/a	n/a	n/a
270.0	2.3856730120023997	10	late	em_task	n/a	n/a	n/a	n/a	45.1546170052863
272.38567301200237	0.75	10	late	em_task_post	n/a	n/a	n/a	n/a	n/a
280.0	1.5	11	early	stimulus	n/a	37.5	n/a	n/a	n/a
285.5	0.5	11	early	dm_task_pre	n/a	n/a	n/a	n/a	n/a
286.0	1.09074446000159	11	early	dm_task	1.09074446000159	n/a	4.0	-1.0	n/a
287.0907444600016	0.75	11	early	dm_task_post	n/a	n/a	n/a	n/a	n/a
297.5	0.5	11	early	em_task_pre	n/a	n/a	n/a	n/a	n/a
298.0	3.2618846290279	11	early	em_task	n/a	n/a	n/a	n/a	40.6196713665014
301.2618846290279	0.75	11	early	em_task_post	n/a	n/a	n/a	n/a	n/a
308.0	1.5	12	early	stimulus	n/a	0.0	n/a	n/a	n/a
313.5	0.5	12	early	dm_task_pre	n/a	n/a	n/a	n/a	n/a
314.0	0.999470588052645	12	early	dm_task	0.999470588052645	n/a	0.0	-1.0	n/a
314.99947058805265	0.75	12	early	dm_task_post	n/a	n/a	n/a	n/a	n/a
325.5	0.5	12	early	em_task_pre	n/a	n/a	n/a	n/a	n/a
326.0	3.1563767309998987	12	early	em_task	n/a	n/a	n/a	n/a	1.42938997824854
329.1563767309999	0.75	12	early	em_task_post	n/a	n/a	n/a	n/a	n/a
