onset	duration	trial	trial_type	event_type	response_time	value_stimulus	value_reference	response_decision	response_estimation
0.0	1.5	1	late	stimulus	n/a	135.0	n/a	n/a	n/a
11.5	0.5	1	late	dm_task_pre	n/a	n/a	n/a	n/a	n/a
12.0	0.644665924992296	1	late	dm_task	0.644665924992296	n/a	-21.0	1.0	n/a
12.644665924992296	0.75	1	late	dm_task_post	n/a	n/a	n/a	n/a	n/a
17.5	0.5	1	late	em_task_pre	n/a	n/a	n/a	n/a	n/a
18.0	2.7987399489939015	1	late	em_task	n/a	n/a	n/a	n/a	129.838983152813
20.7987399489939	0.75	1	late	em_task_post	n/a	n/a	n/a	n/a	n/a
28.0	1.5	2	early	stimulus	n/a	45.0	n/a	n/a	n/a
33.5	0.5	2	early	dm_task_pre	n/a	n/a	n/a	n/a	n/a
34.0	1.18346182799723	2	early	dm_task	1.18346182799723	n/a	-4.0	-1.0	n/a
35.18346182799723	0.75	2	early	dm_task_post	n/a	n/a	n/a	n/a	n/a
45.5	0.5	2	early	em_task_pre	n/a	n/a	n/a	n/a	n/a
46.0	2.6210821330023	2	early	em_task	n/a	n/a	n/a	n/a	41.053376953217
48.621082133002304	0.75	2	early	em_task_post	n/a	n/a	n/a	n/a	n/a
56.0	1.5	3	early	stimulus	n/a	22.5	n/a	n/a	n/a
61.5	0.5	3	early	dm_task_pre	n/a	n/a	n/a	n/a	n/a
62.0	1.29114211899287	3	early	dm_task	1.29114211899287	n/a	4.0	-1.0	n/a
63.291142118992866	0.75	3	early	dm_task_post	n/a	n/a	n/a	n/a	n/a
73.5	0.5	3	early	em_task_pre	n/a	n/a	n/a	n/a	n/a
74.0	3.9946844840014997	3	early	em_task	n/a	n/a	n/a	n/a	18.3064936145072
77.9946844840015	0.75	3	early	em_task_post	n/a	n/a	n/a	n/a	n/a
84.0	1.5	4	late	stimulus	n/a	165.0	n/a	n/a	n/a
95.5	0.5	4	late	dm_task_pre	n/a	n/a	n/a	n/a	n/a
96.0	1.37357401600457	4	late	dm_task	1.37357401600457	n/a	4.0	1.0	n/a
97.37357401600457	0.75	4	late	dm_task_post	n/a	n/a	n/a	n/a	n/a
101.5	0.5	4	late	em_task_pre	n/a	n/a	n/a	n/a	n/a
102.0	3.8181164139969006	4	late	em_task	n/a	n/a	n/a	n/a	161.090404158142
105.8181164139969	0.75	4	late	em_task_post	n/a	n/a	n/a	n/a	n/a
112.0	1.5	5	late	stimulus	n/a	97.5	n/a	n/a	n/a
123.5	0.5	5	late	dm_task_pre	n/a	n/a	n/a	n/a	n/a
124.0	0.705277553002816	5	late	dm_task	0.705277553002816	n/a	21.0	-1.0	n/a
124.70527755300282	0.75	5	late	dm_task_post	n/a	n/a	n/a	n/a	n/a
129.5	0.5	5	late	em_task_pre	n/a	n/a	n/a	n/a	n/a
130.0	2.291129648001501	5	late	em_task	n/a	n/a	n/a	n/a	102.992403340743
132.29112964800152	0.75	5	late	em_task_post	n/a	n/a	n/a	n/a	n/a
140.0	1.5	6	early	stimulus	n/a	0.0	n/a	n/a	n/a
145.5	0.5	6	early	dm_task_pre	n/a	n/a	n/a	n/a	n/a
146.0	0.877420185992378	6	early	dm_task	0.877420185992378	n/a	0.0	-1.0	n/a
146.87742018599238	0.75	6	early	dm_task_post	n/a	n/a	n/a	n/a	n/a
157.5	0.5	6	early	em_task_pre	n/a	n/a	n/a	n/a	n/a
158.0	3.0989853920037014	6	early	em_task	n/a	n/a	n/a	n/a	178.179249659958
161.0989853920037	0.75	6	early	em_task_post	n/a	n/a	n/a	n/a	n/a
168.0	1.5	7	early	stimulus	n/a	52.5	n/a	n/a	n/a
173.5	0.5	7	early	dm_task_pre	n/a	n/a	n/a	n/a	n/a
174.0	1.15178069499962	7	early	dm_task	1.15178069499962	n/a	4.0	-1.0	n/a
175.15178069499962	0.75	7	early	dm_task_post	n/a	n/a	n/a	n/a	n/a
185.5	0.5	7	early	em_task_pre	n/a	n/a	n/a	n/a	n/a
186.0	2.188290152000299	7	early	em_task	n/a	n/a	n/a	n/a	63.7797182007909
188.1882901520003	0.75	7	early	em_task_post	n/a	n/a	n/a	n/a	n/a
196.0	1.5	8	late	stimulus	n/a	150.0	n/a	n/a	n/a
207.5	0.5	8	late	dm_task_pre	n/a	n/a	n/a	n/a	n/a
208.0	0.758728938992135	8	late	dm_task	0.758728938992135	n/a	4.0	-1.0	n/a
208.75872893899214	0.75	8	late	dm_task_post	n/a	n/a	n/a	n/a	n/a
213.5	0.5	8	late	em_task_pre	n/a	n/a	n/a	n/a	n/a
214.0	2.4116384509980016	8	late	em_task	n/a	n/a	n/a	n/a	144.484400323313
216.411638450998	0.75	8	late	em_task_post	n/a	n/a	n/a	n/a	n/a
224.0	1.5	9	late	stimulus	n/a	75.0	n/a	n/a	n/a
235.5	0.5	9	late	dm_task_pre	n/a	n/a	n/a	n/a	n/a
236.0	0.666038016992388	9	late	dm_task	0.666038016992388	n/a	4.0	-1.0	n/a
236.6660380169924	0.75	9	late	dm_task_post	n/a	n/a	n/a	n/a	n/a
241.5	0.5	9	late	em_task_pre	n/a	n/a	n/a	n/a	n/a
242.0	2.3178897040052	9	late	em_task	n/a	n/a	n/a	n/a	67.7358847746756
244.3178897040052	0.75	9	late	em_task_post	n/a	n/a	n/a	n/a	n/a
252.0	1.5	10	early	stimulus	n/a	112.5	n/a	n/a	n/a
257.5	0.5	10	early	dm_task_pre	n/a	n/a	n/a	n/a	n/a
258.0	0.7049485489988	10	early	dm_task	0.7049485489988	n/a	21.0	-1.0	n/a
258.7049485489988	0.75	10	early	dm_task_post	n/a	n/a	n/a	n/a	n/a
269.5	0.5	10	early	em_task_pre	n/a	n/a	n/a	n/a	n/a
270.0	4.075443319001401	10	early	em_task	n/a	n/a	n/a	n/a	121.092117005286
274.0754433190014	0.75	10	early	em_task_post	n/a	n/a	n/a	n/a	n/a
280.0	1.5	11	early	stimulus	n/a	60.0	n/a	n/a	n/a
285.5	0.5	11	early	dm_task_pre	n/a	n/a	n/a	n/a	n/a
286.0	0.836291122002876	11	early	dm_task	0.836291122002876	n/a	-21.0	1.0	n/a
286.8362911220029	0.75	11	early	dm_task_post	n/a	n/a	n/a	n/a	n/a
297.5	0.5	11	early	em_task_pre	n/a	n/a	n/a	n/a	n/a
298.0	2.1149701929970988	11	early	em_task	n/a	n/a	n/a	n/a	54.6821713665014
300.1149701929971	0.75	11	early	em_task_post	n/a	n/a	n/a	n/a	n/a
308.0	1.5	12	early	stimulus	n/a	172.5	n/a	n/a	n/a
313.5	0.5	12	early	dm_task_pre	n/a	n/a	n/a	n/a	n/a
314.0	0.588913093000883	12	early	dm_task	0.588913093000883	n/a	0.0	-1.0	n/a
314.5889130930009	0.75	12	early	dm_task_post	n/a	n/a	n/a	n/a	n/a
325.5	0.5	12	early	em_task_pre	n/a	n/a	n/a	n/a	n/a
326.0	2.0385151560039994	12	early	em_task	n/a	n/a	n/a	n/a	163.148139978249
328.038515156004	0.75	12	early	em_task_post	n/a	n/a	n/a	n/a	n/a
