onset	duration	trial	trial_type	event_type	response_time	value_stimulus	value_reference	response_decision	response_estimation
0.0	1.5	1	late	stimulus	n/a	135.0	n/a	n/a	n/a
11.5	0.5	1	late	dm_task_pre	n/a	n/a	n/a	n/a	n/a
12.0	0.57306165699265	1	late	dm_task	0.57306165699265	n/a	4.0	-1.0	n/a
12.57306165699265	0.75	1	late	dm_task_post	n/a	n/a	n/a	n/a	n/a
17.5	0.5	1	late	em_task_pre	n/a	n/a	n/a	n/a	n/a
18.0	1.6933108259982	1	late	em_task	n/a	n/a	n/a	n/a	136.787868518007
19.6933108259982	0.75	1	late	em_task_post	n/a	n/a	n/a	n/a	n/a
28.0	1.5	2	early	stimulus	n/a	157.5	n/a	n/a	n/a
33.5	0.5	2	early	dm_task_pre	n/a	n/a	n/a	n/a	n/a
34.0	0.547391608008184	2	early	dm_task	0.547391608008184	n/a	-21.0	1.0	n/a
34.54739160800818	0.75	2	early	dm_task_post	n/a	n/a	n/a	n/a	n/a
45.5	0.5	2	early	em_task_pre	n/a	n/a	n/a	n/a	n/a
46.0	1.3513868399896012	2	early	em_task	n/a	n/a	n/a	n/a	153.197148216548
47.3513868399896	0.75	2	early	em_task_post	n/a	n/a	n/a	n/a	n/a
56.0	1.5	3	early	stimulus	n/a	67.5	n/a	n/a	n/a
61.5	0.5	3	early	dm_task_pre	n/a	n/a	n/a	n/a	n/a
62.0	0.473901894001756	3	early	dm_task	0.473901894001756	n/a	-21.0	1.0	n/a
62.473901894001756	0.75	3	early	dm_task_post	n/a	n/a	n/a	n/a	n/a
73.5	0.5	3	early	em_task_pre	n/a	n/a	n/a	n/a	n/a
74.0	2.9102790490142	3	early	em_task	n/a	n/a	n/a	n/a	55.9906351592054
76.9102790490142	0.75	3	early	em_task_post	n/a	n/a	n/a	n/a	n/a
84.0	1.5	4	early	stimulus	n/a	120.0	n/a	n/a	n/a
89.5	0.5	4	early	dm_task_pre	n/a	n/a	n/a	n/a	n/a
90.0	0.598475898994366	4	early	dm_task	0.598475898994366	n/a	4.0	-1.0	n/a
90.59847589899437	0.75	4	early	dm_task_post	n/a	n/a	n/a	n/a	n/a
101.5	0.5	4	early	em_task_pre	n/a	n/a	n/a	n/a	n/a
102.0	2.9031703569926	4	early	em_task	n/a	n/a	n/a	n/a	123.859042701397
104.9031703569926	0.75	4	early	em_task_post	n/a	n/a	n/a	n/a	n/a
112.0	1.5	5	early	stimulus	n/a	90.0	n/a	n/a	n/a
117.5	0.5	5	early	dm_task_pre	n/a	n/a	n/a	n/a	n/a
118.0	0.55786613500095	5	early	dm_task	0.55786613500095	n/a	21.0	-1.0	n/a
118.55786613500095	0.75	5	early	dm_task_post	n/a	n/a	n/a	n/a	n/a
129.5	0.5	5	early	em_task_pre	n/a	n/a	n/a	n/a	n/a
130.0	2.929396059014799	5	early	em_task	n/a	n/a	n/a	n/a	77.2412281298534
132.9293960590148	0.75	5	early	em_task_post	n/a	n/a	n/a	n/a	n/a
140.0	1.5	6	early	stimulus	n/a	37.5	n/a	n/a	n/a
145.5	0.5	6	early	dm_task_pre	n/a	n/a	n/a	n/a	n/a
146.0	0.416950323997298	6	early	dm_task	0.416950323997298	n/a	-21.0	1.0	n/a
146.4169503239973	0.75	6	early	dm_task_post	n/a	n/a	n/a	n/a	n/a
157.5	0.5	6	early	em_task_pre	n/a	n/a	n/a	n/a	n/a
158.0	2.686916665988999	6	early	em_task	n/a	n/a	n/a	n/a	44.993138808817
160.686916665989	0.75	6	early	em_task_post	n/a	n/a	n/a	n/a	n/a
168.0	1.5	7	late	stimulus	n/a	0.0	n/a	n/a	n/a
179.5	0.5	7	late	dm_task_pre	n/a	n/a	n/a	n/a	n/a
180.0	0.89443991400185	7	late	dm_task	0.89443991400185	n/a	0.0	-1.0	n/a
180.89443991400185	0.75	7	late	dm_task_post	n/a	n/a	n/a	n/a	n/a
185.5	0.5	7	late	em_task_pre	n/a	n/a	n/a	n/a	n/a
186.0	3.3799457190033984	7	late	em_task	n/a	n/a	n/a	n/a	4.90178718476562
189.3799457190034	0.75	7	late	em_task_post	n/a	n/a	n/a	n/a	n/a
196.0	1.5	8	early	stimulus	n/a	75.0	n/a	n/a	n/a
201.5	0.5	8	early	dm_task_pre	n/a	n/a	n/a	n/a	n/a
202.0	0.584981096995762	8	early	dm_task	0.584981096995762	n/a	21.0	-1.0	n/a
202.58498109699576	0.75	8	early	dm_task_post	n/a	n/a	n/a	n/a	n/a
213.5	0.5	8	early	em_task_pre	n/a	n/a	n/a	n/a	n/a
214.0	1.9894863129884008	8	early	em_task	n/a	n/a	n/a	n/a	79.4794198661512
215.9894863129884	0.75	8	early	em_task_post	n/a	n/a	n/a	n/a	n/a
224.0	1.5	9	late	stimulus	n/a	45.0	n/a	n/a	n/a
235.5	0.5	9	late	dm_task_pre	n/a	n/a	n/a	n/a	n/a
236.0	0.563366948015755	9	late	dm_task	0.563366948015755	n/a	4.0	-1.0	n/a
236.56336694801576	0.75	9	late	dm_task_post	n/a	n/a	n/a	n/a	n/a
241.5	0.5	9	late	em_task_pre	n/a	n/a	n/a	n/a	n/a
242.0	2.0664091749932005	9	late	em_task	n/a	n/a	n/a	n/a	37.146772726524
244.0664091749932	0.75	9	late	em_task_post	n/a	n/a	n/a	n/a	n/a
252.0	1.5	10	early	stimulus	n/a	15.0	n/a	n/a	n/a
257.5	0.5	10	early	dm_task_pre	n/a	n/a	n/a	n/a	n/a
258.0	0.518957315012813	10	early	dm_task	0.518957315012813	n/a	4.0	-1.0	n/a
258.5189573150128	0.75	10	early	dm_task_post	n/a	n/a	n/a	n/a	n/a
269.5	0.5	10	early	em_task_pre	n/a	n/a	n/a	n/a	n/a
270.0	2.4401251139933997	10	early	em_task	n/a	n/a	n/a	n/a	25.3957739106858
272.4401251139934	0.75	10	early	em_task_post	n/a	n/a	n/a	n/a	n/a
280.0	1.5	11	late	stimulus	n/a	172.5	n/a	n/a	n/a
291.5	0.5	11	late	dm_task_pre	n/a	n/a	n/a	n/a	n/a
292.0	0.747838729992509	11	late	dm_task	0.747838729992509	n/a	-4.0	-1.0	n/a
292.7478387299925	0.75	11	late	dm_task_post	n/a	n/a	n/a	n/a	n/a
297.5	0.5	11	late	em_task_pre	n/a	n/a	n/a	n/a	n/a
298.0	3.0170219120046013	11	late	em_task	n/a	n/a	n/a	n/a	163.653860918256
301.0170219120046	0.75	11	late	em_task_post	n/a	n/a	n/a	n/a	n/a
308.0	1.5	12	late	stimulus	n/a	165.0	n/a	n/a	n/a
319.5	0.5	12	late	dm_task_pre	n/a	n/a	n/a	n/a	n/a
320.0	0.506657407997409	12	late	dm_task	0.506657407997409	n/a	21.0	-1.0	n/a
320.5066574079974	0.75	12	late	dm_task_post	n/a	n/a	n/a	n/a	n/a
325.5	0.5	12	late	em_task_pre	n/a	n/a	n/a	n/a	n/a
326.0	1.4590099169872985	12	late	em_task	n/a	n/a	n/a	n/a	157.59767783314
327.45900991698727	0.75	12	late	em_task_post	n/a	n/a	n/a	n/a	n/a
