onset	duration	trial	trial_type	event_type	response_time	value_stimulus	value_reference	response_decision	response_estimation
0.0	1.5	1	late	stimulus	n/a	127.5	n/a	n/a	n/a
11.5	0.5	1	late	dm_task_pre	n/a	n/a	n/a	n/a	n/a
12.0	0.902261347044259	1	late	dm_task	0.902261347044259	n/a	21.0	-1.0	n/a
12.90226134704426	0.75	1	late	dm_task_post	n/a	n/a	n/a	n/a	n/a
17.5	0.5	1	late	em_task_pre	n/a	n/a	n/a	n/a	n/a
18.0	2.131997224001701	1	late	em_task	n/a	n/a	n/a	n/a	120.253361826526
20.1319972240017	0.75	1	late	em_task_post	n/a	n/a	n/a	n/a	n/a
28.0	1.5	2	early	stimulus	n/a	22.5	n/a	n/a	n/a
33.5	0.5	2	early	dm_task_pre	n/a	n/a	n/a	n/a	n/a
34.0	1.37820183701115	2	early	dm_task	1.37820183701115	n/a	0.0	-1.0	n/a
35.37820183701115	0.75	2	early	dm_task_post	n/a	n/a	n/a	n/a	n/a
45.5	0.5	2	early	em_task_pre	n/a	n/a	n/a	n/a	n/a
46.0	3.5331224300316997	2	early	em_task	n/a	n/a	n/a	n/a	15.4960088881253
49.533122430031696	0.75	2	early	em_task_post	n/a	n/a	n/a	n/a	n/a
56.0	1.5	3	early	stimulus	n/a	120.0	n/a	n/a	n/a
61.5	0.5	3	early	dm_task_pre	n/a	n/a	n/a	n/a	n/a
62.0	0.602616604999639	3	early	dm_task	0.602616604999639	n/a	-4.0	1.0	n/a
62.60261660499964	0.75	3	early	dm_task_post	n/a	n/a	n/a	n/a	n/a
73.5	0.5	3	early	em_task_pre	n/a	n/a	n/a	n/a	n/a
74.0	2.8074231439968997	3	early	em_task	n/a	n/a	n/a	n/a	121.320990541409
76.8074231439969	0.75	3	early	em_task_post	n/a	n/a	n/a	n/a	n/a
84.0	1.5	4	early	stimulus	n/a	97.5	n/a	n/a	n/a
89.5	0.5	4	early	dm_task_pre	n/a	n/a	n/a	n/a	n/a
90.0	0.527998197998386	4	early	dm_task	0.527998197998386	n/a	-4.0	1.0	n/a
90.52799819799839	0.75	4	early	dm_task_post	n/a	n/a	n/a	n/a	n/a
101.5	0.5	4	early	em_task_pre	n/a	n/a	n/a	n/a	n/a
102.0	2.5008446600404994	4	early	em_task	n/a	n/a	n/a	n/a	99.6671761460803
104.5008446600405	0.75	4	early	em_task_post	n/a	n/a	n/a	n/a	n/a
112.0	1.5	5	late	stimulus	n/a	30.0	n/a	n/a	n/a
123.5	0.5	5	late	dm_task_pre	n/a	n/a	n/a	n/a	n/a
124.0	0.756921969994437	5	late	dm_task	0.756921969994437	n/a	0.0	-1.0	n/a
124.75692196999444	0.75	5	late	dm_task_post	n/a	n/a	n/a	n/a	n/a
129.5	0.5	5	late	em_task_pre	n/a	n/a	n/a	n/a	n/a
130.0	2.259777021012301	5	late	em_task	n/a	n/a	n/a	n/a	21.6568292986085
132.2597770210123	0.75	5	late	em_task_post	n/a	n/a	n/a	n/a	n/a
140.0	1.5	6	early	stimulus	n/a	15.0	n/a	n/a	n/a
145.5	0.5	6	early	dm_task_pre	n/a	n/a	n/a	n/a	n/a
146.0	0.862683394050691	6	early	dm_task	0.862683394050691	n/a	4.0	1.0	n/a
146.8626833940507	0.75	6	early	dm_task_post	n/a	n/a	n/a	n/a	n/a
157.5	0.5	6	early	em_task_pre	n/a	n/a	n/a	n/a	n/a
158.0	3.7018564160098	6	early	em_task	n/a	n/a	n/a	n/a	22.5213773212557
161.7018564160098	0.75	6	early	em_task_post	n/a	n/a	n/a	n/a	n/a
168.0	1.5	7	early	stimulus	n/a	0.0	n/a	n/a	n/a
173.5	0.5	7	early	dm_task_pre	n/a	n/a	n/a	n/a	n/a
174.0	0.990012174996082	7	early	dm_task	0.990012174996082	n/a	0.0	-1.0	n/a
174.99001217499608	0.75	7	early	dm_task_post	n/a	n/a	n/a	n/a	n/a
185.5	0.5	7	early	em_task_pre	n/a	n/a	n/a	n/a	n/a
186.0	2.3431717890197987	7	early	em_task	n/a	n/a	n/a	n/a	172.09941576631
188.3431717890198	0.75	7	early	em_task_post	n/a	n/a	n/a	n/a	n/a
196.0	1.5	8	late	stimulus	n/a	7.5	n/a	n/a	n/a
207.5	0.5	8	late	dm_task_pre	n/a	n/a	n/a	n/a	n/a
208.0	1.46781667601317	8	late	dm_task	1.46781667601317	n/a	4.0	1.0	n/a
209.46781667601317	0.75	8	late	dm_task_post	n/a	n/a	n/a	n/a	n/a
213.5	0.5	8	late	em_task_pre	n/a	n/a	n/a	n/a	n/a
214.0	2.8533970270073006	8	late	em_task	n/a	n/a	n/a	n/a	22.5236665309388
216.8533970270073	0.75	8	late	em_task_post	n/a	n/a	n/a	n/a	n/a
224.0	1.5	9	early	stimulus	n/a	150.0	n/a	n/a	n/a
229.5	0.5	9	early	dm_task_pre	n/a	n/a	n/a	n/a	n/a
230.0	0.709901833033655	9	early	dm_task	0.709901833033655	n/a	4.0	-1.0	n/a
230.70990183303365	0.75	9	early	dm_task_post	n/a	n/a	n/a	n/a	n/a
241.5	0.5	9	early	em_task_pre	n/a	n/a	n/a	n/a	n/a
242.0	3.0615716540486986	9	early	em_task	n/a	n/a	n/a	n/a	143.765114837297
245.0615716540487	0.75	9	early	em_task_post	n/a	n/a	n/a	n/a	n/a
252.0	1.5	10	late	stimulus	n/a	157.5	n/a	n/a	n/a
263.5	0.5	10	late	dm_task_pre	n/a	n/a	n/a	n/a	n/a
264.0	0.917734536051285	10	late	dm_task	0.917734536051285	n/a	21.0	-1.0	n/a
264.9177345360513	0.75	10	late	dm_task_post	n/a	n/a	n/a	n/a	n/a
269.5	0.5	10	late	em_task_pre	n/a	n/a	n/a	n/a	n/a
270.0	2.7047964790254007	10	late	em_task	n/a	n/a	n/a	n/a	160.473732249517
272.7047964790254	0.75	10	late	em_task_post	n/a	n/a	n/a	n/a	n/a
280.0	1.5	11	late	stimulus	n/a	142.5	n/a	n/a	n/a
291.5	0.5	11	late	dm_task_pre	n/a	n/a	n/a	n/a	n/a
292.0	0.860900136001874	11	late	dm_task	0.860900136001874	n/a	0.0	1.0	n/a
292.8609001360019	0.75	11	late	dm_task_post	n/a	n/a	n/a	n/a	n/a
297.5	0.5	11	late	em_task_pre	n/a	n/a	n/a	n/a	n/a
298.0	3.0423871570382985	11	late	em_task	n/a	n/a	n/a	n/a	151.484735655623
301.0423871570383	0.75	11	late	em_task_post	n/a	n/a	n/a	n/a	n/a
308.0	1.5	12	late	stimulus	n/a	165.0	n/a	n/a	n/a
319.5	0.5	12	late	dm_task_pre	n/a	n/a	n/a	n/a	n/a
320.0	0.571285351004917	12	late	dm_task	0.571285351004917	n/a	-21.0	1.0	n/a
320.5712853510049	0.75	12	late	dm_task_post	n/a	n/a	n/a	n/a	n/a
325.5	0.5	12	late	em_task_pre	n/a	n/a	n/a	n/a	n/a
326.0	2.005277877033201	12	late	em_task	n/a	n/a	n/a	n/a	169.335222771055
328.0052778770332	0.75	12	late	em_task_post	n/a	n/a	n/a	n/a	n/a
