onset	duration	trial	trial_type	event_type	response_time	value_stimulus	value_reference	response_decision	response_estimation
0.0	1.5	1	late	stimulus	n/a	127.5	n/a	n/a	n/a
11.5	0.5	1	late	dm_task_pre	n/a	n/a	n/a	n/a	n/a
12.0	0.87202993221581	1	late	dm_task	0.87202993221581	n/a	0.0	-1.0	n/a
12.87202993221581	0.75	1	late	dm_task_post	n/a	n/a	n/a	n/a	n/a
17.5	0.5	1	late	em_task_pre	n/a	n/a	n/a	n/a	n/a
18.0	2.036979603115501	1	late	em_task	n/a	n/a	n/a	n/a	120.698358152813
20.0369796031155	0.75	1	late	em_task_post	n/a	n/a	n/a	n/a	n/a
28.0	1.5	2	late	stimulus	n/a	60.0	n/a	n/a	n/a
39.5	0.5	2	late	dm_task_pre	n/a	n/a	n/a	n/a	n/a
40.0	0.878392309183255	2	late	dm_task	0.878392309183255	n/a	-21.0	1.0	n/a
40.878392309183255	0.75	2	late	dm_task_post	n/a	n/a	n/a	n/a	n/a
45.5	0.5	2	late	em_task_pre	n/a	n/a	n/a	n/a	n/a
46.0	2.1937288390472993	2	late	em_task	n/a	n/a	n/a	n/a	52.303376953217
48.193728839047296	0.75	2	late	em_task_post	n/a	n/a	n/a	n/a	n/a
56.0	1.5	3	early	stimulus	n/a	157.5	n/a	n/a	n/a
61.5	0.5	3	early	dm_task_pre	n/a	n/a	n/a	n/a	n/a
62.0	1.5	3	early	dm_task	1.60329676303081	n/a	-4.0	-1.0	n/a
63.5	0.75	3	early	dm_task_post	n/a	n/a	n/a	n/a	n/a
73.5	0.5	3	early	em_task_pre	n/a	n/a	n/a	n/a	n/a
74.0	3.0829369700513993	3	early	em_task	n/a	n/a	n/a	n/a	155.415868614507
77.0829369700514	0.75	3	early	em_task_post	n/a	n/a	n/a	n/a	n/a
84.0	1.5	4	early	stimulus	n/a	142.5	n/a	n/a	n/a
89.5	0.5	4	early	dm_task_pre	n/a	n/a	n/a	n/a	n/a
90.0	0.543660575058311	4	early	dm_task	0.543660575058311	n/a	-21.0	1.0	n/a
90.54366057505831	0.75	4	early	dm_task_post	n/a	n/a	n/a	n/a	n/a
101.5	0.5	4	early	em_task_pre	n/a	n/a	n/a	n/a	n/a
102.0	3.4546488011256002	4	early	em_task	n/a	n/a	n/a	n/a	142.809154158142
105.4546488011256	0.75	4	early	em_task_post	n/a	n/a	n/a	n/a	n/a
112.0	1.5	5	late	stimulus	n/a	67.5	n/a	n/a	n/a
123.5	0.5	5	late	dm_task_pre	n/a	n/a	n/a	n/a	n/a
124.0	0.564590879017487	5	late	dm_task	0.564590879017487	n/a	21.0	-1.0	n/a
124.56459087901749	0.75	5	late	dm_task_post	n/a	n/a	n/a	n/a	n/a
129.5	0.5	5	late	em_task_pre	n/a	n/a	n/a	n/a	n/a
130.0	2.2298083221539997	5	late	em_task	n/a	n/a	n/a	n/a	58.6955283407432
132.22980832215399	0.75	5	late	em_task_post	n/a	n/a	n/a	n/a	n/a
140.0	1.5	6	early	stimulus	n/a	82.5	n/a	n/a	n/a
145.5	0.5	6	early	dm_task_pre	n/a	n/a	n/a	n/a	n/a
146.0	0.522646875120699	6	early	dm_task	0.522646875120699	n/a	21.0	-1.0	n/a
146.5226468751207	0.75	6	early	dm_task_post	n/a	n/a	n/a	n/a	n/a
157.5	0.5	6	early	em_task_pre	n/a	n/a	n/a	n/a	n/a
158.0	2.6016239731107014	6	early	em_task	n/a	n/a	n/a	n/a	76.2261246599575
160.6016239731107	0.75	6	early	em_task_post	n/a	n/a	n/a	n/a	n/a
168.0	1.5	7	early	stimulus	n/a	22.5	n/a	n/a	n/a
173.5	0.5	7	early	dm_task_pre	n/a	n/a	n/a	n/a	n/a
174.0	1.42983896820806	7	early	dm_task	1.42983896820806	n/a	4.0	-1.0	n/a
175.42983896820806	0.75	7	early	dm_task_post	n/a	n/a	n/a	n/a	n/a
185.5	0.5	7	early	em_task_pre	n/a	n/a	n/a	n/a	n/a
186.0	1.4914676391054016	7	early	em_task	n/a	n/a	n/a	n/a	22.9984682007909
187.4914676391054	0.75	7	early	em_task_post	n/a	n/a	n/a	n/a	n/a
196.0	1.5	8	late	stimulus	n/a	150.0	n/a	n/a	n/a
207.5	0.5	8	late	dm_task_pre	n/a	n/a	n/a	n/a	n/a
208.0	1.21770619903691	8	late	dm_task	1.21770619903691	n/a	-4.0	1.0	n/a
209.2177061990369	0.75	8	late	dm_task_post	n/a	n/a	n/a	n/a	n/a
213.5	0.5	8	late	em_task_pre	n/a	n/a	n/a	n/a	n/a
214.0	1.8147417181171015	8	late	em_task	n/a	n/a	n/a	n/a	151.515650323313
215.8147417181171	0.75	8	late	em_task_post	n/a	n/a	n/a	n/a	n/a
224.0	1.5	9	late	stimulus	n/a	7.5	n/a	n/a	n/a
235.5	0.5	9	late	dm_task_pre	n/a	n/a	n/a	n/a	n/a
236.0	0.974190337117761	9	late	dm_task	0.974190337117761	n/a	4.0	1.0	n/a
236.97419033711776	0.75	9	late	dm_task_post	n/a	n/a	n/a	n/a	n/a
241.5	0.5	9	late	em_task_pre	n/a	n/a	n/a	n/a	n/a
242.0	4.1718213371933	9	late	em_task	n/a	n/a	n/a	n/a	15.0015097746756
246.1718213371933	0.75	9	late	em_task_post	n/a	n/a	n/a	n/a	n/a
252.0	1.5	10	late	stimulus	n/a	90.0	n/a	n/a	n/a
263.5	0.5	10	late	dm_task_pre	n/a	n/a	n/a	n/a	n/a
264.0	1.5	10	late	dm_task	1.63194846408442	n/a	-4.0	-1.0	n/a
265.5	0.75	10	late	dm_task_post	n/a	n/a	n/a	n/a	n/a
269.5	0.5	10	late	em_task_pre	n/a	n/a	n/a	n/a	n/a
270.0	2.428533887025001	10	late	em_task	n/a	n/a	n/a	n/a	76.7952420052863
272.428533887025	0.75	10	late	em_task_post	n/a	n/a	n/a	n/a	n/a
280.0	1.5	11	early	stimulus	n/a	97.5	n/a	n/a	n/a
285.5	0.5	11	early	dm_task_pre	n/a	n/a	n/a	n/a	n/a
286.0	0.555824453011155	11	early	dm_task	0.555824453011155	n/a	4.0	1.0	n/a
286.55582445301116	0.75	11	early	dm_task_post	n/a	n/a	n/a	n/a	n/a
297.5	0.5	11	early	em_task_pre	n/a	n/a	n/a	n/a	n/a
298.0	3.5336753390729	11	early	em_task	n/a	n/a	n/a	n/a	97.5727963665014
301.5336753390729	0.75	11	early	em_task_post	n/a	n/a	n/a	n/a	n/a
308.0	1.5	12	late	stimulus	n/a	52.5	n/a	n/a	n/a
319.5	0.5	12	late	dm_task_pre	n/a	n/a	n/a	n/a	n/a
320.0	0.842675296124071	12	late	dm_task	0.842675296124071	n/a	21.0	-1.0	n/a
320.84267529612407	0.75	12	late	dm_task_post	n/a	n/a	n/a	n/a	n/a
325.5	0.5	12	late	em_task_pre	n/a	n/a	n/a	n/a	n/a
326.0	3.0570470571983996	12	late	em_task	n/a	n/a	n/a	n/a	40.8043899782486
329.0570470571984	0.75	12	late	em_task_post	n/a	n/a	n/a	n/a	n/a
