onset	duration	trial	trial_type	event_type	response_time	value_stimulus	value_reference	response_decision	response_estimation
0.0	1.5	1	late	stimulus	n/a	37.5	n/a	n/a	n/a
11.5	0.5	1	late	dm_task_pre	n/a	n/a	n/a	n/a	n/a
12.0	0.594798054007697	1	late	dm_task	0.594798054007697	n/a	21.0	-1.0	n/a
12.594798054007697	0.75	1	late	dm_task_post	n/a	n/a	n/a	n/a	n/a
17.5	0.5	1	late	em_task_pre	n/a	n/a	n/a	n/a	n/a
18.0	4.258621296001401	1	late	em_task	n/a	n/a	n/a	n/a	36.9499848974947
22.2586212960014	0.75	1	late	em_task_post	n/a	n/a	n/a	n/a	n/a
28.0	1.5	2	early	stimulus	n/a	75.0	n/a	n/a	n/a
33.5	0.5	2	early	dm_task_pre	n/a	n/a	n/a	n/a	n/a
34.0	0.551776069012703	2	early	dm_task	0.551776069012703	n/a	21.0	-1.0	n/a
34.5517760690127	0.75	2	early	dm_task_post	n/a	n/a	n/a	n/a	n/a
45.5	0.5	2	early	em_task_pre	n/a	n/a	n/a	n/a	n/a
46.0	1.1466253810067002	2	early	em_task	n/a	n/a	n/a	n/a	73.4195250518603
47.1466253810067	0.75	2	early	em_task_post	n/a	n/a	n/a	n/a	n/a
56.0	1.5	3	early	stimulus	n/a	15.0	n/a	n/a	n/a
61.5	0.5	3	early	dm_task_pre	n/a	n/a	n/a	n/a	n/a
62.0	0.960490408004262	3	early	dm_task	0.960490408004262	n/a	21.0	-1.0	n/a
62.96049040800426	0.75	3	early	dm_task_post	n/a	n/a	n/a	n/a	n/a
73.5	0.5	3	early	em_task_pre	n/a	n/a	n/a	n/a	n/a
74.0	2.1186081990018018	3	early	em_task	n/a	n/a	n/a	n/a	13.3841899555261
76.1186081990018	0.75	3	early	em_task_post	n/a	n/a	n/a	n/a	n/a
84.0	1.5	4	early	stimulus	n/a	7.5	n/a	n/a	n/a
89.5	0.5	4	early	dm_task_pre	n/a	n/a	n/a	n/a	n/a
90.0	0.615259615005925	4	early	dm_task	0.615259615005925	n/a	21.0	-1.0	n/a
90.61525961500593	0.75	4	early	dm_task_post	n/a	n/a	n/a	n/a	n/a
101.5	0.5	4	early	em_task_pre	n/a	n/a	n/a	n/a	n/a
102.0	2.5548135950085005	4	early	em_task	n/a	n/a	n/a	n/a	9.2014310938668
104.5548135950085	0.75	4	early	em_task_post	n/a	n/a	n/a	n/a	n/a
112.0	1.5	5	late	stimulus	n/a	105.0	n/a	n/a	n/a
123.5	0.5	5	late	dm_task_pre	n/a	n/a	n/a	n/a	n/a
124.0	0.700599035000778	5	late	dm_task	0.700599035000778	n/a	21.0	-1.0	n/a
124.70059903500078	0.75	5	late	dm_task_post	n/a	n/a	n/a	n/a	n/a
129.5	0.5	5	late	em_task_pre	n/a	n/a	n/a	n/a	n/a
130.0	2.6995109950076	5	late	em_task	n/a	n/a	n/a	n/a	106.134008811082
132.69951099500759	0.75	5	late	em_task_post	n/a	n/a	n/a	n/a	n/a
140.0	1.5	6	late	stimulus	n/a	82.5	n/a	n/a	n/a
151.5	0.5	6	late	dm_task_pre	n/a	n/a	n/a	n/a	n/a
152.0	0.622236168012023	6	late	dm_task	0.622236168012023	n/a	4.0	-1.0	n/a
152.62223616801202	0.75	6	late	dm_task_post	n/a	n/a	n/a	n/a	n/a
157.5	0.5	6	late	em_task_pre	n/a	n/a	n/a	n/a	n/a
158.0	2.4850906730134987	6	late	em_task	n/a	n/a	n/a	n/a	82.9753206855544
160.4850906730135	0.75	6	late	em_task_post	n/a	n/a	n/a	n/a	n/a
168.0	1.5	7	early	stimulus	n/a	135.0	n/a	n/a	n/a
173.5	0.5	7	early	dm_task_pre	n/a	n/a	n/a	n/a	n/a
174.0	0.640248237003107	7	early	dm_task	0.640248237003107	n/a	21.0	-1.0	n/a
174.6402482370031	0.75	7	early	dm_task_post	n/a	n/a	n/a	n/a	n/a
185.5	0.5	7	early	em_task_pre	n/a	n/a	n/a	n/a	n/a
186.0	4.5	7	early	em_task	n/a	n/a	n/a	n/a	n/a
190.5	0.75	7	early	em_task_post	n/a	n/a	n/a	n/a	n/a
196.0	1.5	8	early	stimulus	n/a	142.5	n/a	n/a	n/a
201.5	0.5	8	early	dm_task_pre	n/a	n/a	n/a	n/a	n/a
202.0	0.660497839999152	8	early	dm_task	0.660497839999152	n/a	-21.0	1.0	n/a
202.66049783999915	0.75	8	early	dm_task_post	n/a	n/a	n/a	n/a	n/a
213.5	0.5	8	early	em_task_pre	n/a	n/a	n/a	n/a	n/a
214.0	3.3085463950118985	8	early	em_task	n/a	n/a	n/a	n/a	151.365491290968
217.3085463950119	0.75	8	early	em_task_post	n/a	n/a	n/a	n/a	n/a
224.0	1.5	9	early	stimulus	n/a	90.0	n/a	n/a	n/a
229.5	0.5	9	early	dm_task_pre	n/a	n/a	n/a	n/a	n/a
230.0	0.848478590007289	9	early	dm_task	0.848478590007289	n/a	4.0	-1.0	n/a
230.8484785900073	0.75	9	early	dm_task_post	n/a	n/a	n/a	n/a	n/a
241.5	0.5	9	early	em_task_pre	n/a	n/a	n/a	n/a	n/a
242.0	3.7089820230029993	9	early	em_task	n/a	n/a	n/a	n/a	88.5899665786885
245.708982023003	0.75	9	early	em_task_post	n/a	n/a	n/a	n/a	n/a
252.0	1.5	10	early	stimulus	n/a	60.0	n/a	n/a	n/a
257.5	0.5	10	early	dm_task_pre	n/a	n/a	n/a	n/a	n/a
258.0	0.785666266005137	10	early	dm_task	0.785666266005137	n/a	-4.0	-1.0	n/a
258.78566626600514	0.75	10	early	dm_task_post	n/a	n/a	n/a	n/a	n/a
269.5	0.5	10	early	em_task_pre	n/a	n/a	n/a	n/a	n/a
270.0	2.896836818006701	10	early	em_task	n/a	n/a	n/a	n/a	42.1018560615928
272.8968368180067	0.75	10	early	em_task_post	n/a	n/a	n/a	n/a	n/a
280.0	1.5	11	early	stimulus	n/a	172.5	n/a	n/a	n/a
285.5	0.5	11	early	dm_task_pre	n/a	n/a	n/a	n/a	n/a
286.0	1.5	11	early	dm_task	1.75608211700455	n/a	21.0	-1.0	n/a
287.5	0.75	11	early	dm_task_post	n/a	n/a	n/a	n/a	n/a
297.5	0.5	11	early	em_task_pre	n/a	n/a	n/a	n/a	n/a
298.0	1.8182235810091	11	early	em_task	n/a	n/a	n/a	n/a	152.788834786493
299.8182235810091	0.75	11	early	em_task_post	n/a	n/a	n/a	n/a	n/a
308.0	1.5	12	late	stimulus	n/a	112.5	n/a	n/a	n/a
319.5	0.5	12	late	dm_task_pre	n/a	n/a	n/a	n/a	n/a
320.0	0.825575645008939	12	late	dm_task	0.825575645008939	n/a	0.0	1.0	n/a
320.82557564500894	0.75	12	late	dm_task_post	n/a	n/a	n/a	n/a	n/a
325.5	0.5	12	late	em_task_pre	n/a	n/a	n/a	n/a	n/a
326.0	2.2389319320063983	12	late	em_task	n/a	n/a	n/a	n/a	123.482435899378
328.2389319320064	0.75	12	late	em_task_post	n/a	n/a	n/a	n/a	n/a
