onset	duration	trial	trial_type	event_type	response_time	value_stimulus	value_reference	response_decision	response_estimation
0.0	1.5	1	late	stimulus	n/a	157.5	n/a	n/a	n/a
11.5	0.5	1	late	dm_task_pre	n/a	n/a	n/a	n/a	n/a
12.0	1.06593156396411	1	late	dm_task	1.06593156396411	n/a	0.0	1.0	n/a
13.06593156396411	0.75	1	late	dm_task_post	n/a	n/a	n/a	n/a	n/a
17.5	0.5	1	late	em_task_pre	n/a	n/a	n/a	n/a	n/a
18.0	3.068235302984199	1	late	em_task	n/a	n/a	n/a	n/a	170.065319843155
21.0682353029842	0.75	1	late	em_task_post	n/a	n/a	n/a	n/a	n/a
28.0	1.5	2	late	stimulus	n/a	30.0	n/a	n/a	n/a
39.5	0.5	2	late	dm_task_pre	n/a	n/a	n/a	n/a	n/a
40.0	0.775626041984651	2	late	dm_task	0.775626041984651	n/a	0.0	1.0	n/a
40.77562604198465	0.75	2	late	dm_task_post	n/a	n/a	n/a	n/a	n/a
45.5	0.5	2	late	em_task_pre	n/a	n/a	n/a	n/a	n/a
46.0	3.4275882549700007	2	late	em_task	n/a	n/a	n/a	n/a	34.666434741612
49.427588254970004	0.75	2	late	em_task_post	n/a	n/a	n/a	n/a	n/a
56.0	1.5	3	late	stimulus	n/a	150.0	n/a	n/a	n/a
67.5	0.5	3	late	dm_task_pre	n/a	n/a	n/a	n/a	n/a
68.0	0.967872162000276	3	late	dm_task	0.967872162000276	n/a	0.0	1.0	n/a
68.96787216200028	0.75	3	late	dm_task_post	n/a	n/a	n/a	n/a	n/a
73.5	0.5	3	late	em_task_pre	n/a	n/a	n/a	n/a	n/a
74.0	2.9381914570112997	3	late	em_task	n/a	n/a	n/a	n/a	138.949494275546
76.9381914570113	0.75	3	late	em_task_post	n/a	n/a	n/a	n/a	n/a
84.0	1.5	4	early	stimulus	n/a	22.5	n/a	n/a	n/a
89.5	0.5	4	early	dm_task_pre	n/a	n/a	n/a	n/a	n/a
90.0	0.608734411012847	4	early	dm_task	0.608734411012847	n/a	4.0	1.0	n/a
90.60873441101285	0.75	4	early	dm_task_post	n/a	n/a	n/a	n/a	n/a
101.5	0.5	4	early	em_task_pre	n/a	n/a	n/a	n/a	n/a
102.0	2.347203718964	4	early	em_task	n/a	n/a	n/a	n/a	28.2618129598189
104.347203718964	0.75	4	early	em_task_post	n/a	n/a	n/a	n/a	n/a
112.0	1.5	5	late	stimulus	n/a	142.5	n/a	n/a	n/a
123.5	0.5	5	late	dm_task_pre	n/a	n/a	n/a	n/a	n/a
124.0	1.5	5	late	dm_task	n/a	n/a	-21.0	n/a	n/a
125.5	0.75	5	late	dm_task_post	n/a	n/a	n/a	n/a	n/a
129.5	0.5	5	late	em_task_pre	n/a	n/a	n/a	n/a	n/a
130.0	2.921337526000599	5	late	em_task	n/a	n/a	n/a	n/a	49.8040543986245
132.9213375260006	0.75	5	late	em_task_post	n/a	n/a	n/a	n/a	n/a
140.0	1.5	6	late	stimulus	n/a	82.5	n/a	n/a	n/a
151.5	0.5	6	late	dm_task_pre	n/a	n/a	n/a	n/a	n/a
152.0	0.695126058999449	6	late	dm_task	0.695126058999449	n/a	-21.0	1.0	n/a
152.69512605899945	0.75	6	late	dm_task_post	n/a	n/a	n/a	n/a	n/a
157.5	0.5	6	late	em_task_pre	n/a	n/a	n/a	n/a	n/a
158.0	2.1968731249798985	6	late	em_task	n/a	n/a	n/a	n/a	79.7897897517275
160.1968731249799	0.75	6	late	em_task_post	n/a	n/a	n/a	n/a	n/a
168.0	1.5	7	early	stimulus	n/a	60.0	n/a	n/a	n/a
173.5	0.5	7	early	dm_task_pre	n/a	n/a	n/a	n/a	n/a
174.0	1.08678262797184	7	early	dm_task	1.08678262797184	n/a	0.0	-1.0	n/a
175.08678262797184	0.75	7	early	dm_task_post	n/a	n/a	n/a	n/a	n/a
185.5	0.5	7	early	em_task_pre	n/a	n/a	n/a	n/a	n/a
186.0	2.957872155006001	7	early	em_task	n/a	n/a	n/a	n/a	58.835868264752
188.957872155006	0.75	7	early	em_task_post	n/a	n/a	n/a	n/a	n/a
196.0	1.5	8	early	stimulus	n/a	135.0	n/a	n/a	n/a
201.5	0.5	8	early	dm_task_pre	n/a	n/a	n/a	n/a	n/a
202.0	0.61219891696237	8	early	dm_task	0.61219891696237	n/a	4.0	-1.0	n/a
202.61219891696237	0.75	8	early	dm_task_post	n/a	n/a	n/a	n/a	n/a
213.5	0.5	8	early	em_task_pre	n/a	n/a	n/a	n/a	n/a
214.0	2.9843885339797005	8	early	em_task	n/a	n/a	n/a	n/a	139.937299047547
216.9843885339797	0.75	8	early	em_task_post	n/a	n/a	n/a	n/a	n/a
224.0	1.5	9	early	stimulus	n/a	112.5	n/a	n/a	n/a
229.5	0.5	9	early	dm_task_pre	n/a	n/a	n/a	n/a	n/a
230.0	0.804521343961824	9	early	dm_task	0.804521343961824	n/a	-4.0	1.0	n/a
230.80452134396182	0.75	9	early	dm_task_post	n/a	n/a	n/a	n/a	n/a
241.5	0.5	9	early	em_task_pre	n/a	n/a	n/a	n/a	n/a
242.0	2.8429007100058	9	early	em_task	n/a	n/a	n/a	n/a	25.8014570337553
244.8429007100058	0.75	9	early	em_task_post	n/a	n/a	n/a	n/a	n/a
252.0	1.5	10	late	stimulus	n/a	105.0	n/a	n/a	n/a
263.5	0.5	10	late	dm_task_pre	n/a	n/a	n/a	n/a	n/a
264.0	0.931841682991944	10	late	dm_task	0.931841682991944	n/a	4.0	1.0	n/a
264.93184168299194	0.75	10	late	dm_task_post	n/a	n/a	n/a	n/a	n/a
269.5	0.5	10	late	em_task_pre	n/a	n/a	n/a	n/a	n/a
270.0	3.5517566889757006	10	late	em_task	n/a	n/a	n/a	n/a	123.474480518103
273.55175668897573	0.75	10	late	em_task_post	n/a	n/a	n/a	n/a	n/a
280.0	1.5	11	late	stimulus	n/a	15.0	n/a	n/a	n/a
291.5	0.5	11	late	dm_task_pre	n/a	n/a	n/a	n/a	n/a
292.0	0.824521470989566	11	late	dm_task	0.824521470989566	n/a	0.0	1.0	n/a
292.82452147098957	0.75	11	late	dm_task_post	n/a	n/a	n/a	n/a	n/a
297.5	0.5	11	late	em_task_pre	n/a	n/a	n/a	n/a	n/a
298.0	3.3949327460140992	11	late	em_task	n/a	n/a	n/a	n/a	18.3460456154292
301.3949327460141	0.75	11	late	em_task_post	n/a	n/a	n/a	n/a	n/a
308.0	1.5	12	early	stimulus	n/a	52.5	n/a	n/a	n/a
313.5	0.5	12	early	dm_task_pre	n/a	n/a	n/a	n/a	n/a
314.0	0.698847758001648	12	early	dm_task	0.698847758001648	n/a	-4.0	1.0	n/a
314.69884775800165	0.75	12	early	dm_task_post	n/a	n/a	n/a	n/a	n/a
325.5	0.5	12	early	em_task_pre	n/a	n/a	n/a	n/a	n/a
326.0	1.8850199899753015	12	early	em_task	n/a	n/a	n/a	n/a	47.0169184047365
327.8850199899753	0.75	12	early	em_task_post	n/a	n/a	n/a	n/a	n/a
