onset	duration	trial	trial_type	event_type	response_time	value_stimulus	value_reference	response_decision	response_estimation
0.0	1.5	1	early	stimulus	n/a	37.5	n/a	n/a	n/a
5.5	0.5	1	early	dm_task_pre	n/a	n/a	n/a	n/a	n/a
6.0	0.648354548000043	1	early	dm_task	0.648354548000043	n/a	4.0	1.0	n/a
6.648354548000043	0.75	1	early	dm_task_post	n/a	n/a	n/a	n/a	n/a
17.5	0.5	1	early	em_task_pre	n/a	n/a	n/a	n/a	n/a
18.0	4.0440884200002	1	early	em_task	n/a	n/a	n/a	n/a	42.6514831528127
22.0440884200002	0.75	1	early	em_task_post	n/a	n/a	n/a	n/a	n/a
28.0	1.5	2	early	stimulus	n/a	135.0	n/a	n/a	n/a
33.5	0.5	2	early	dm_task_pre	n/a	n/a	n/a	n/a	n/a
34.0	1.5	2	early	dm_task	1.62155826200024	n/a	-4.0	1.0	n/a
35.5	0.75	2	early	dm_task_post	n/a	n/a	n/a	n/a	n/a
45.5	0.5	2	early	em_task_pre	n/a	n/a	n/a	n/a	n/a
46.0	4.5	2	early	em_task	n/a	n/a	n/a	n/a	n/a
50.5	0.75	2	early	em_task_post	n/a	n/a	n/a	n/a	n/a
56.0	1.5	3	early	stimulus	n/a	142.5	n/a	n/a	n/a
61.5	0.5	3	early	dm_task_pre	n/a	n/a	n/a	n/a	n/a
62.0	1.02876981999998	3	early	dm_task	1.02876981999998	n/a	-4.0	-1.0	n/a
63.02876981999998	0.75	3	early	dm_task_post	n/a	n/a	n/a	n/a	n/a
73.5	0.5	3	early	em_task_pre	n/a	n/a	n/a	n/a	n/a
74.0	1.658569055000001	3	early	em_task	n/a	n/a	n/a	n/a	137.134618614507
75.658569055	0.75	3	early	em_task_post	n/a	n/a	n/a	n/a	n/a
84.0	1.5	4	late	stimulus	n/a	120.0	n/a	n/a	n/a
95.5	0.5	4	late	dm_task_pre	n/a	n/a	n/a	n/a	n/a
96.0	0.816000147000068	4	late	dm_task	0.816000147000068	n/a	0.0	-1.0	n/a
96.81600014700007	0.75	4	late	dm_task_post	n/a	n/a	n/a	n/a	n/a
101.5	0.5	4	late	em_task_pre	n/a	n/a	n/a	n/a	n/a
102.0	3.8142395330001015	4	late	em_task	n/a	n/a	n/a	n/a	133.668529158142
105.8142395330001	0.75	4	late	em_task_post	n/a	n/a	n/a	n/a	n/a
112.0	1.5	5	early	stimulus	n/a	127.5	n/a	n/a	n/a
117.5	0.5	5	early	dm_task_pre	n/a	n/a	n/a	n/a	n/a
118.0	0.84215370100037	5	early	dm_task	0.84215370100037	n/a	0.0	1.0	n/a
118.84215370100037	0.75	5	early	dm_task_post	n/a	n/a	n/a	n/a	n/a
129.5	0.5	5	early	em_task_pre	n/a	n/a	n/a	n/a	n/a
130.0	3.1203384830001006	5	early	em_task	n/a	n/a	n/a	n/a	119.867403340743
133.1203384830001	0.75	5	early	em_task_post	n/a	n/a	n/a	n/a	n/a
140.0	1.5	6	early	stimulus	n/a	157.5	n/a	n/a	n/a
145.5	0.5	6	early	dm_task_pre	n/a	n/a	n/a	n/a	n/a
146.0	0.865113055000165	6	early	dm_task	0.865113055000165	n/a	21.0	1.0	n/a
146.86511305500017	0.75	6	early	dm_task_post	n/a	n/a	n/a	n/a	n/a
157.5	0.5	6	early	em_task_pre	n/a	n/a	n/a	n/a	n/a
158.0	4.043223308999998	6	early	em_task	n/a	n/a	n/a	n/a	166.929249659958
162.04322330899998	0.75	6	early	em_task_post	n/a	n/a	n/a	n/a	n/a
168.0	1.5	7	early	stimulus	n/a	22.5	n/a	n/a	n/a
173.5	0.5	7	early	dm_task_pre	n/a	n/a	n/a	n/a	n/a
174.0	0.754415441000219	7	early	dm_task	0.754415441000219	n/a	-21.0	1.0	n/a
174.75441544100022	0.75	7	early	dm_task_post	n/a	n/a	n/a	n/a	n/a
185.5	0.5	7	early	em_task_pre	n/a	n/a	n/a	n/a	n/a
186.0	2.500592785000201	7	early	em_task	n/a	n/a	n/a	n/a	20.8890932007909
188.5005927850002	0.75	7	early	em_task_post	n/a	n/a	n/a	n/a	n/a
196.0	1.5	8	late	stimulus	n/a	112.5	n/a	n/a	n/a
207.5	0.5	8	late	dm_task_pre	n/a	n/a	n/a	n/a	n/a
208.0	0.559459068000251	8	late	dm_task	0.559459068000251	n/a	-21.0	1.0	n/a
208.55945906800025	0.75	8	late	dm_task_post	n/a	n/a	n/a	n/a	n/a
213.5	0.5	8	late	em_task_pre	n/a	n/a	n/a	n/a	n/a
214.0	3.190945182000199	8	late	em_task	n/a	n/a	n/a	n/a	103.000025323313
217.1909451820002	0.75	8	late	em_task_post	n/a	n/a	n/a	n/a	n/a
224.0	1.5	9	early	stimulus	n/a	172.5	n/a	n/a	n/a
229.5	0.5	9	early	dm_task_pre	n/a	n/a	n/a	n/a	n/a
230.0	0.901867094000409	9	early	dm_task	0.901867094000409	n/a	21.0	-1.0	n/a
230.9018670940004	0.75	9	early	dm_task_post	n/a	n/a	n/a	n/a	n/a
241.5	0.5	9	early	em_task_pre	n/a	n/a	n/a	n/a	n/a
242.0	3.2467597439999984	9	early	em_task	n/a	n/a	n/a	n/a	166.173384774676
245.246759744	0.75	9	early	em_task_post	n/a	n/a	n/a	n/a	n/a
252.0	1.5	10	early	stimulus	n/a	52.5	n/a	n/a	n/a
257.5	0.5	10	early	dm_task_pre	n/a	n/a	n/a	n/a	n/a
258.0	0.791128236000077	10	early	dm_task	0.791128236000077	n/a	-4.0	1.0	n/a
258.7911282360001	0.75	10	early	dm_task_post	n/a	n/a	n/a	n/a	n/a
269.5	0.5	10	early	em_task_pre	n/a	n/a	n/a	n/a	n/a
270.0	3.1361937030000995	10	early	em_task	n/a	n/a	n/a	n/a	64.8421170052863
273.1361937030001	0.75	10	early	em_task_post	n/a	n/a	n/a	n/a	n/a
280.0	1.5	11	early	stimulus	n/a	45.0	n/a	n/a	n/a
285.5	0.5	11	early	dm_task_pre	n/a	n/a	n/a	n/a	n/a
286.0	0.980641391000063	11	early	dm_task	0.980641391000063	n/a	-4.0	1.0	n/a
286.98064139100006	0.75	11	early	dm_task_post	n/a	n/a	n/a	n/a	n/a
297.5	0.5	11	early	em_task_pre	n/a	n/a	n/a	n/a	n/a
298.0	1.776741701999999	11	early	em_task	n/a	n/a	n/a	n/a	47.6509213665014
299.776741702	0.75	11	early	em_task_post	n/a	n/a	n/a	n/a	n/a
308.0	1.5	12	early	stimulus	n/a	30.0	n/a	n/a	n/a
313.5	0.5	12	early	dm_task_pre	n/a	n/a	n/a	n/a	n/a
314.0	0.654344326000228	12	early	dm_task	0.654344326000228	n/a	-21.0	1.0	n/a
314.6543443260002	0.75	12	early	dm_task_post	n/a	n/a	n/a	n/a	n/a
325.5	0.5	12	early	em_task_pre	n/a	n/a	n/a	n/a	n/a
326.0	4.282890052000301	12	early	em_task	n/a	n/a	n/a	n/a	33.7731399782486
330.2828900520003	0.75	12	early	em_task_post	n/a	n/a	n/a	n/a	n/a
