onset	duration	trial	trial_type	event_type	response_time	value_stimulus	value_reference	response_decision	response_estimation
0.0	1.5	1	late	stimulus	n/a	127.5	n/a	n/a	n/a
11.5	0.5	1	late	dm_task_pre	n/a	n/a	n/a	n/a	n/a
12.0	1.38230870701955	1	late	dm_task	1.38230870701955	n/a	0.0	-1.0	n/a
13.38230870701955	0.75	1	late	dm_task_post	n/a	n/a	n/a	n/a	n/a
17.5	0.5	1	late	em_task_pre	n/a	n/a	n/a	n/a	n/a
18.0	2.5840189910086018	1	late	em_task	n/a	n/a	n/a	n/a	103.658474016065
20.5840189910086	0.75	1	late	em_task_post	n/a	n/a	n/a	n/a	n/a
28.0	1.5	2	late	stimulus	n/a	7.5	n/a	n/a	n/a
39.5	0.5	2	late	dm_task_pre	n/a	n/a	n/a	n/a	n/a
40.0	1.29042250002385	2	late	dm_task	1.29042250002385	n/a	-4.0	-1.0	n/a
41.29042250002385	0.75	2	late	dm_task_post	n/a	n/a	n/a	n/a	n/a
45.5	0.5	2	late	em_task_pre	n/a	n/a	n/a	n/a	n/a
46.0	2.542552172002601	2	late	em_task	n/a	n/a	n/a	n/a	8.77512454431229
48.5425521720026	0.75	2	late	em_task_post	n/a	n/a	n/a	n/a	n/a
56.0	1.5	3	late	stimulus	n/a	172.5	n/a	n/a	n/a
67.5	0.5	3	late	dm_task_pre	n/a	n/a	n/a	n/a	n/a
68.0	1.11704902001657	3	late	dm_task	1.11704902001657	n/a	4.0	-1.0	n/a
69.11704902001657	0.75	3	late	dm_task_post	n/a	n/a	n/a	n/a	n/a
73.5	0.5	3	late	em_task_pre	n/a	n/a	n/a	n/a	n/a
74.0	2.4353856570086982	3	late	em_task	n/a	n/a	n/a	n/a	166.532524210712
76.4353856570087	0.75	3	late	em_task_post	n/a	n/a	n/a	n/a	n/a
84.0	1.5	4	early	stimulus	n/a	37.5	n/a	n/a	n/a
89.5	0.5	4	early	dm_task_pre	n/a	n/a	n/a	n/a	n/a
90.0	0.740248092013644	4	early	dm_task	0.740248092013644	n/a	-4.0	1.0	n/a
90.74024809201364	0.75	4	early	dm_task_post	n/a	n/a	n/a	n/a	n/a
101.5	0.5	4	early	em_task_pre	n/a	n/a	n/a	n/a	n/a
102.0	1.3453264460259007	4	early	em_task	n/a	n/a	n/a	n/a	23.2091404743849
103.3453264460259	0.75	4	early	em_task_post	n/a	n/a	n/a	n/a	n/a
112.0	1.5	5	late	stimulus	n/a	45.0	n/a	n/a	n/a
123.5	0.5	5	late	dm_task_pre	n/a	n/a	n/a	n/a	n/a
124.0	0.649916548019974	5	late	dm_task	0.649916548019974	n/a	-21.0	1.0	n/a
124.64991654801997	0.75	5	late	dm_task_post	n/a	n/a	n/a	n/a	n/a
129.5	0.5	5	late	em_task_pre	n/a	n/a	n/a	n/a	n/a
130.0	3.220100874023	5	late	em_task	n/a	n/a	n/a	n/a	28.6900835697494
133.220100874023	0.75	5	late	em_task_post	n/a	n/a	n/a	n/a	n/a
140.0	1.5	6	early	stimulus	n/a	135.0	n/a	n/a	n/a
145.5	0.5	6	early	dm_task_pre	n/a	n/a	n/a	n/a	n/a
146.0	0.757903367019026	6	early	dm_task	0.757903367019026	n/a	4.0	-1.0	n/a
146.75790336701903	0.75	6	early	dm_task_post	n/a	n/a	n/a	n/a	n/a
157.5	0.5	6	early	em_task_pre	n/a	n/a	n/a	n/a	n/a
158.0	2.180343059997501	6	early	em_task	n/a	n/a	n/a	n/a	126.734668014187
160.1803430599975	0.75	6	early	em_task_post	n/a	n/a	n/a	n/a	n/a
168.0	1.5	7	late	stimulus	n/a	60.0	n/a	n/a	n/a
179.5	0.5	7	late	dm_task_pre	n/a	n/a	n/a	n/a	n/a
180.0	0.718205790006323	7	late	dm_task	0.718205790006323	n/a	0.0	1.0	n/a
180.71820579000632	0.75	7	late	dm_task_post	n/a	n/a	n/a	n/a	n/a
185.5	0.5	7	late	em_task_pre	n/a	n/a	n/a	n/a	n/a
186.0	3.0890648910135	7	late	em_task	n/a	n/a	n/a	n/a	65.1843419690356
189.0890648910135	0.75	7	late	em_task_post	n/a	n/a	n/a	n/a	n/a
196.0	1.5	8	early	stimulus	n/a	67.5	n/a	n/a	n/a
201.5	0.5	8	early	dm_task_pre	n/a	n/a	n/a	n/a	n/a
202.0	0.676494405022822	8	early	dm_task	0.676494405022822	n/a	4.0	-1.0	n/a
202.67649440502282	0.75	8	early	dm_task_post	n/a	n/a	n/a	n/a	n/a
213.5	0.5	8	early	em_task_pre	n/a	n/a	n/a	n/a	n/a
214.0	3.497407151997301	8	early	em_task	n/a	n/a	n/a	n/a	29.4100909811293
217.4974071519973	0.75	8	early	em_task_post	n/a	n/a	n/a	n/a	n/a
224.0	1.5	9	early	stimulus	n/a	120.0	n/a	n/a	n/a
229.5	0.5	9	early	dm_task_pre	n/a	n/a	n/a	n/a	n/a
230.0	0.852852883021114	9	early	dm_task	0.852852883021114	n/a	0.0	-1.0	n/a
230.85285288302111	0.75	9	early	dm_task_post	n/a	n/a	n/a	n/a	n/a
241.5	0.5	9	early	em_task_pre	n/a	n/a	n/a	n/a	n/a
242.0	2.3074645239975986	9	early	em_task	n/a	n/a	n/a	n/a	111.249997480836
244.3074645239976	0.75	9	early	em_task_post	n/a	n/a	n/a	n/a	n/a
252.0	1.5	10	early	stimulus	n/a	0.0	n/a	n/a	n/a
257.5	0.5	10	early	dm_task_pre	n/a	n/a	n/a	n/a	n/a
258.0	1.37759804801317	10	early	dm_task	1.37759804801317	n/a	0.0	1.0	n/a
259.37759804801317	0.75	10	early	dm_task_post	n/a	n/a	n/a	n/a	n/a
269.5	0.5	10	early	em_task_pre	n/a	n/a	n/a	n/a	n/a
270.0	3.1496673740039007	10	early	em_task	n/a	n/a	n/a	n/a	0.563484692792457
273.1496673740039	0.75	10	early	em_task_post	n/a	n/a	n/a	n/a	n/a
280.0	1.5	11	late	stimulus	n/a	75.0	n/a	n/a	n/a
291.5	0.5	11	late	dm_task_pre	n/a	n/a	n/a	n/a	n/a
292.0	0.806699053006014	11	late	dm_task	0.806699053006014	n/a	-4.0	1.0	n/a
292.806699053006	0.75	11	late	dm_task_post	n/a	n/a	n/a	n/a	n/a
297.5	0.5	11	late	em_task_pre	n/a	n/a	n/a	n/a	n/a
298.0	2.4431207209999997	11	late	em_task	n/a	n/a	n/a	n/a	85.1484855990872
300.443120721	0.75	11	late	em_task_post	n/a	n/a	n/a	n/a	n/a
308.0	1.5	12	early	stimulus	n/a	30.0	n/a	n/a	n/a
313.5	0.5	12	early	dm_task_pre	n/a	n/a	n/a	n/a	n/a
314.0	0.946508131019073	12	early	dm_task	0.946508131019073	n/a	0.0	1.0	n/a
314.9465081310191	0.75	12	early	dm_task_post	n/a	n/a	n/a	n/a	n/a
325.5	0.5	12	early	em_task_pre	n/a	n/a	n/a	n/a	n/a
326.0	3.301168127014499	12	early	em_task	n/a	n/a	n/a	n/a	30.7887256686904
329.3011681270145	0.75	12	early	em_task_post	n/a	n/a	n/a	n/a	n/a
