onset	duration	trial	trial_type	event_type	response_time	value_stimulus	value_reference	response_decision	response_estimation
0.0	1.5	1	early	stimulus	n/a	52.5	n/a	n/a	n/a
5.5	0.5	1	early	dm_task_pre	n/a	n/a	n/a	n/a	n/a
6.0	0.691898973978823	1	early	dm_task	0.691898973978823	n/a	-4.0	-1.0	n/a
6.691898973978823	0.75	1	early	dm_task_post	n/a	n/a	n/a	n/a	n/a
17.5	0.5	1	early	em_task_pre	n/a	n/a	n/a	n/a	n/a
18.0	2.5639820259820993	1	early	em_task	n/a	n/a	n/a	n/a	28.4285669603545
20.5639820259821	0.75	1	early	em_task_post	n/a	n/a	n/a	n/a	n/a
28.0	1.5	2	early	stimulus	n/a	142.5	n/a	n/a	n/a
33.5	0.5	2	early	dm_task_pre	n/a	n/a	n/a	n/a	n/a
34.0	0.533652618993074	2	early	dm_task	0.533652618993074	n/a	-4.0	1.0	n/a
34.533652618993074	0.75	2	early	dm_task_post	n/a	n/a	n/a	n/a	n/a
45.5	0.5	2	early	em_task_pre	n/a	n/a	n/a	n/a	n/a
46.0	3.6061552399769	2	early	em_task	n/a	n/a	n/a	n/a	149.511370458603
49.6061552399769	0.75	2	early	em_task_post	n/a	n/a	n/a	n/a	n/a
56.0	1.5	3	late	stimulus	n/a	120.0	n/a	n/a	n/a
67.5	0.5	3	late	dm_task_pre	n/a	n/a	n/a	n/a	n/a
68.0	0.728998473990941	3	late	dm_task	0.728998473990941	n/a	21.0	-1.0	n/a
68.72899847399094	0.75	3	late	dm_task_post	n/a	n/a	n/a	n/a	n/a
73.5	0.5	3	late	em_task_pre	n/a	n/a	n/a	n/a	n/a
74.0	2.9990236439916984	3	late	em_task	n/a	n/a	n/a	n/a	117.854639293973
76.9990236439917	0.75	3	late	em_task_post	n/a	n/a	n/a	n/a	n/a
84.0	1.5	4	late	stimulus	n/a	90.0	n/a	n/a	n/a
95.5	0.5	4	late	dm_task_pre	n/a	n/a	n/a	n/a	n/a
96.0	0.689797038998222	4	late	dm_task	0.689797038998222	n/a	0.0	1.0	n/a
96.68979703899822	0.75	4	late	dm_task_post	n/a	n/a	n/a	n/a	n/a
101.5	0.5	4	late	em_task_pre	n/a	n/a	n/a	n/a	n/a
102.0	2.206729569996199	4	late	em_task	n/a	n/a	n/a	n/a	87.3621293438412
104.2067295699962	0.75	4	late	em_task_post	n/a	n/a	n/a	n/a	n/a
112.0	1.5	5	early	stimulus	n/a	172.5	n/a	n/a	n/a
117.5	0.5	5	early	dm_task_pre	n/a	n/a	n/a	n/a	n/a
118.0	1.27883183199447	5	early	dm_task	1.27883183199447	n/a	4.0	-1.0	n/a
119.27883183199447	0.75	5	early	dm_task_post	n/a	n/a	n/a	n/a	n/a
129.5	0.5	5	early	em_task_pre	n/a	n/a	n/a	n/a	n/a
130.0	2.2670703949988997	5	early	em_task	n/a	n/a	n/a	n/a	163.506883239516
132.2670703949989	0.75	5	early	em_task_post	n/a	n/a	n/a	n/a	n/a
140.0	1.5	6	late	stimulus	n/a	67.5	n/a	n/a	n/a
151.5	0.5	6	late	dm_task_pre	n/a	n/a	n/a	n/a	n/a
152.0	0.774078083981294	6	late	dm_task	0.774078083981294	n/a	-21.0	1.0	n/a
152.7740780839813	0.75	6	late	dm_task_post	n/a	n/a	n/a	n/a	n/a
157.5	0.5	6	late	em_task_pre	n/a	n/a	n/a	n/a	n/a
158.0	2.609053825988699	6	late	em_task	n/a	n/a	n/a	n/a	46.9309864969171
160.6090538259887	0.75	6	late	em_task_post	n/a	n/a	n/a	n/a	n/a
168.0	1.5	7	early	stimulus	n/a	75.0	n/a	n/a	n/a
173.5	0.5	7	early	dm_task_pre	n/a	n/a	n/a	n/a	n/a
174.0	0.680685139988782	7	early	dm_task	0.680685139988782	n/a	-21.0	1.0	n/a
174.68068513998878	0.75	7	early	dm_task_post	n/a	n/a	n/a	n/a	n/a
185.5	0.5	7	early	em_task_pre	n/a	n/a	n/a	n/a	n/a
186.0	1.7342413159786005	7	early	em_task	n/a	n/a	n/a	n/a	76.9999327999816
187.7342413159786	0.75	7	early	em_task_post	n/a	n/a	n/a	n/a	n/a
196.0	1.5	8	early	stimulus	n/a	112.5	n/a	n/a	n/a
201.5	0.5	8	early	dm_task_pre	n/a	n/a	n/a	n/a	n/a
202.0	1.5	8	early	dm_task	n/a	n/a	4.0	n/a	n/a
203.5	0.75	8	early	dm_task_post	n/a	n/a	n/a	n/a	n/a
213.5	0.5	8	early	em_task_pre	n/a	n/a	n/a	n/a	n/a
214.0	2.1615173519822015	8	early	em_task	n/a	n/a	n/a	n/a	116.720136450943
216.1615173519822	0.75	8	early	em_task_post	n/a	n/a	n/a	n/a	n/a
224.0	1.5	9	late	stimulus	n/a	7.5	n/a	n/a	n/a
235.5	0.5	9	late	dm_task_pre	n/a	n/a	n/a	n/a	n/a
236.0	0.984269076987403	9	late	dm_task	0.984269076987403	n/a	-4.0	1.0	n/a
236.9842690769874	0.75	9	late	dm_task_post	n/a	n/a	n/a	n/a	n/a
241.5	0.5	9	late	em_task_pre	n/a	n/a	n/a	n/a	n/a
242.0	1.7037733019969998	9	late	em_task	n/a	n/a	n/a	n/a	6.4994935635127
243.703773301997	0.75	9	late	em_task_post	n/a	n/a	n/a	n/a	n/a
252.0	1.5	10	early	stimulus	n/a	150.0	n/a	n/a	n/a
257.5	0.5	10	early	dm_task_pre	n/a	n/a	n/a	n/a	n/a
258.0	0.760113117983565	10	early	dm_task	0.760113117983565	n/a	21.0	-1.0	n/a
258.76011311798356	0.75	10	early	dm_task_post	n/a	n/a	n/a	n/a	n/a
269.5	0.5	10	early	em_task_pre	n/a	n/a	n/a	n/a	n/a
270.0	4.2464153259934	10	early	em_task	n/a	n/a	n/a	n/a	148.129959766039
274.2464153259934	0.75	10	early	em_task_post	n/a	n/a	n/a	n/a	n/a
280.0	1.5	11	early	stimulus	n/a	22.5	n/a	n/a	n/a
285.5	0.5	11	early	dm_task_pre	n/a	n/a	n/a	n/a	n/a
286.0	1.01786651698058	11	early	dm_task	1.01786651698058	n/a	4.0	-1.0	n/a
287.0178665169806	0.75	11	early	dm_task_post	n/a	n/a	n/a	n/a	n/a
297.5	0.5	11	early	em_task_pre	n/a	n/a	n/a	n/a	n/a
298.0	1.8887452639756006	11	early	em_task	n/a	n/a	n/a	n/a	8.53311479021747
299.8887452639756	0.75	11	early	em_task_post	n/a	n/a	n/a	n/a	n/a
308.0	1.5	12	early	stimulus	n/a	135.0	n/a	n/a	n/a
313.5	0.5	12	early	dm_task_pre	n/a	n/a	n/a	n/a	n/a
314.0	0.726289449987235	12	early	dm_task	0.726289449987235	n/a	21.0	1.0	n/a
314.72628944998723	0.75	12	early	dm_task_post	n/a	n/a	n/a	n/a	n/a
325.5	0.5	12	early	em_task_pre	n/a	n/a	n/a	n/a	n/a
326.0	4.5	12	early	em_task	n/a	n/a	n/a	n/a	n/a
330.5	0.75	12	early	em_task_post	n/a	n/a	n/a	n/a	n/a
