onset	duration	trial	trial_type	event_type	response_time	value_stimulus	value_reference	response_decision	response_estimation
0.0	1.5	1	late	stimulus	n/a	150.0	n/a	n/a	n/a
11.5	0.5	1	late	dm_task_pre	n/a	n/a	n/a	n/a	n/a
12.0	1.5	1	late	dm_task	n/a	n/a	0.0	n/a	n/a
13.5	0.75	1	late	dm_task_post	n/a	n/a	n/a	n/a	n/a
17.5	0.5	1	late	em_task_pre	n/a	n/a	n/a	n/a	n/a
18.0	2.991497238000001	1	late	em_task	n/a	n/a	n/a	n/a	166.401483152813
20.991497238	0.75	1	late	em_task_post	n/a	n/a	n/a	n/a	n/a
28.0	1.5	2	early	stimulus	n/a	120.0	n/a	n/a	n/a
33.5	0.5	2	early	dm_task_pre	n/a	n/a	n/a	n/a	n/a
34.0	0.70253971599999	2	early	dm_task	0.70253971599999	n/a	-21.0	1.0	n/a
34.70253971599999	0.75	2	early	dm_task_post	n/a	n/a	n/a	n/a	n/a
45.5	0.5	2	early	em_task_pre	n/a	n/a	n/a	n/a	n/a
46.0	3.4990794869999995	2	early	em_task	n/a	n/a	n/a	n/a	117.694001953217
49.499079487	0.75	2	early	em_task_post	n/a	n/a	n/a	n/a	n/a
56.0	1.5	3	early	stimulus	n/a	142.5	n/a	n/a	n/a
61.5	0.5	3	early	dm_task_pre	n/a	n/a	n/a	n/a	n/a
62.0	0.629375276000019	3	early	dm_task	0.629375276000019	n/a	-21.0	1.0	n/a
62.62937527600002	0.75	3	early	dm_task_post	n/a	n/a	n/a	n/a	n/a
73.5	0.5	3	early	em_task_pre	n/a	n/a	n/a	n/a	n/a
74.0	3.207024195999999	3	early	em_task	n/a	n/a	n/a	n/a	147.681493614507
77.20702419599999	0.75	3	early	em_task_post	n/a	n/a	n/a	n/a	n/a
84.0	1.5	4	early	stimulus	n/a	105.0	n/a	n/a	n/a
89.5	0.5	4	early	dm_task_pre	n/a	n/a	n/a	n/a	n/a
90.0	0.604449652000028	4	early	dm_task	0.604449652000028	n/a	-21.0	1.0	n/a
90.60444965200003	0.75	4	early	dm_task_post	n/a	n/a	n/a	n/a	n/a
101.5	0.5	4	early	em_task_pre	n/a	n/a	n/a	n/a	n/a
102.0	4.281412608	4	early	em_task	n/a	n/a	n/a	n/a	116.793529158142
106.281412608	0.75	4	early	em_task_post	n/a	n/a	n/a	n/a	n/a
112.0	1.5	5	late	stimulus	n/a	60.0	n/a	n/a	n/a
123.5	0.5	5	late	dm_task_pre	n/a	n/a	n/a	n/a	n/a
124.0	0.577013506000014	5	late	dm_task	0.577013506000014	n/a	-21.0	1.0	n/a
124.57701350600001	0.75	5	late	dm_task_post	n/a	n/a	n/a	n/a	n/a
129.5	0.5	5	late	em_task_pre	n/a	n/a	n/a	n/a	n/a
130.0	3.5392568980000014	5	late	em_task	n/a	n/a	n/a	n/a	59.3986533407432
133.539256898	0.75	5	late	em_task_post	n/a	n/a	n/a	n/a	n/a
140.0	1.5	6	late	stimulus	n/a	0.0	n/a	n/a	n/a
151.5	0.5	6	late	dm_task_pre	n/a	n/a	n/a	n/a	n/a
152.0	0.501620010000011	6	late	dm_task	0.501620010000011	n/a	4.0	1.0	n/a
152.50162001	0.75	6	late	dm_task_post	n/a	n/a	n/a	n/a	n/a
157.5	0.5	6	late	em_task_pre	n/a	n/a	n/a	n/a	n/a
158.0	4.5	6	late	em_task	n/a	n/a	n/a	n/a	n/a
162.5	0.75	6	late	em_task_post	n/a	n/a	n/a	n/a	n/a
168.0	1.5	7	late	stimulus	n/a	135.0	n/a	n/a	n/a
179.5	0.5	7	late	dm_task_pre	n/a	n/a	n/a	n/a	n/a
180.0	1.15928350199999	7	late	dm_task	1.15928350199999	n/a	21.0	-1.0	n/a
181.159283502	0.75	7	late	dm_task_post	n/a	n/a	n/a	n/a	n/a
185.5	0.5	7	late	em_task_pre	n/a	n/a	n/a	n/a	n/a
186.0	3.8221442900000007	7	late	em_task	n/a	n/a	n/a	n/a	138.310968200791
189.82214429	0.75	7	late	em_task_post	n/a	n/a	n/a	n/a	n/a
196.0	1.5	8	late	stimulus	n/a	90.0	n/a	n/a	n/a
207.5	0.5	8	late	dm_task_pre	n/a	n/a	n/a	n/a	n/a
208.0	0.967216423000025	8	late	dm_task	0.967216423000025	n/a	0.0	1.0	n/a
208.96721642300002	0.75	8	late	dm_task_post	n/a	n/a	n/a	n/a	n/a
213.5	0.5	8	late	em_task_pre	n/a	n/a	n/a	n/a	n/a
214.0	2.979930507999999	8	late	em_task	n/a	n/a	n/a	n/a	98.078150323313
216.979930508	0.75	8	late	em_task_post	n/a	n/a	n/a	n/a	n/a
224.0	1.5	9	early	stimulus	n/a	30.0	n/a	n/a	n/a
229.5	0.5	9	early	dm_task_pre	n/a	n/a	n/a	n/a	n/a
230.0	0.677029285999993	9	early	dm_task	0.677029285999993	n/a	21.0	-1.0	n/a
230.677029286	0.75	9	early	dm_task_post	n/a	n/a	n/a	n/a	n/a
241.5	0.5	9	early	em_task_pre	n/a	n/a	n/a	n/a	n/a
242.0	2.8716734020000985	9	early	em_task	n/a	n/a	n/a	n/a	18.5171347746756
244.8716734020001	0.75	9	early	em_task_post	n/a	n/a	n/a	n/a	n/a
252.0	1.5	10	early	stimulus	n/a	45.0	n/a	n/a	n/a
257.5	0.5	10	early	dm_task_pre	n/a	n/a	n/a	n/a	n/a
258.0	0.785133402000042	10	early	dm_task	0.785133402000042	n/a	0.0	-1.0	n/a
258.78513340200004	0.75	10	early	dm_task_post	n/a	n/a	n/a	n/a	n/a
269.5	0.5	10	early	em_task_pre	n/a	n/a	n/a	n/a	n/a
270.0	3.8123248369999985	10	early	em_task	n/a	n/a	n/a	n/a	38.8264920052863
273.812324837	0.75	10	early	em_task_post	n/a	n/a	n/a	n/a	n/a
280.0	1.5	11	late	stimulus	n/a	7.5	n/a	n/a	n/a
291.5	0.5	11	late	dm_task_pre	n/a	n/a	n/a	n/a	n/a
292.0	1.007781744	11	late	dm_task	1.007781744	n/a	-4.0	-1.0	n/a
293.007781744	0.75	11	late	dm_task_post	n/a	n/a	n/a	n/a	n/a
297.5	0.5	11	late	em_task_pre	n/a	n/a	n/a	n/a	n/a
298.0	1.6872735630000015	11	late	em_task	n/a	n/a	n/a	n/a	6.16654636650145
299.687273563	0.75	11	late	em_task_post	n/a	n/a	n/a	n/a	n/a
308.0	1.5	12	early	stimulus	n/a	157.5	n/a	n/a	n/a
313.5	0.5	12	early	dm_task_pre	n/a	n/a	n/a	n/a	n/a
314.0	0.817476179999971	12	early	dm_task	0.817476179999971	n/a	4.0	-1.0	n/a
314.81747617999997	0.75	12	early	dm_task_post	n/a	n/a	n/a	n/a	n/a
325.5	0.5	12	early	em_task_pre	n/a	n/a	n/a	n/a	n/a
326.0	2.8614441709999987	12	early	em_task	n/a	n/a	n/a	n/a	139.241889978249
328.861444171	0.75	12	early	em_task_post	n/a	n/a	n/a	n/a	n/a
