onset	duration	trial	trial_type	event_type	response_time	value_stimulus	value_reference	response_decision	response_estimation
0.0	1.5	1	early	stimulus	n/a	165.0	n/a	n/a	n/a
5.5	0.5	1	early	dm_task_pre	n/a	n/a	n/a	n/a	n/a
6.0	0.850786835886538	1	early	dm_task	0.850786835886538	n/a	-4.0	-1.0	n/a
6.850786835886538	0.75	1	early	dm_task_post	n/a	n/a	n/a	n/a	n/a
17.5	0.5	1	early	em_task_pre	n/a	n/a	n/a	n/a	n/a
18.0	3.1466320748440992	1	early	em_task	n/a	n/a	n/a	n/a	156.485715321942
21.1466320748441	0.75	1	early	em_task_post	n/a	n/a	n/a	n/a	n/a
28.0	1.5	2	late	stimulus	n/a	90.0	n/a	n/a	n/a
39.5	0.5	2	late	dm_task_pre	n/a	n/a	n/a	n/a	n/a
40.0	0.788969666697085	2	late	dm_task	0.788969666697085	n/a	-21.0	1.0	n/a
40.788969666697085	0.75	2	late	dm_task_post	n/a	n/a	n/a	n/a	n/a
45.5	0.5	2	late	em_task_pre	n/a	n/a	n/a	n/a	n/a
46.0	2.4868338727392008	2	late	em_task	n/a	n/a	n/a	n/a	92.7601649242499
48.4868338727392	0.75	2	late	em_task_post	n/a	n/a	n/a	n/a	n/a
56.0	1.5	3	late	stimulus	n/a	7.5	n/a	n/a	n/a
67.5	0.5	3	late	dm_task_pre	n/a	n/a	n/a	n/a	n/a
68.0	0.794483651872724	3	late	dm_task	0.794483651872724	n/a	21.0	-1.0	n/a
68.79448365187272	0.75	3	late	dm_task_post	n/a	n/a	n/a	n/a	n/a
73.5	0.5	3	late	em_task_pre	n/a	n/a	n/a	n/a	n/a
74.0	1.9916893579066013	3	late	em_task	n/a	n/a	n/a	n/a	12.8203090754556
75.99168935790661	0.75	3	late	em_task_post	n/a	n/a	n/a	n/a	n/a
84.0	1.5	4	late	stimulus	n/a	15.0	n/a	n/a	n/a
95.5	0.5	4	late	dm_task_pre	n/a	n/a	n/a	n/a	n/a
96.0	0.834893500898033	4	late	dm_task	0.834893500898033	n/a	4.0	1.0	n/a
96.83489350089803	0.75	4	late	dm_task_post	n/a	n/a	n/a	n/a	n/a
101.5	0.5	4	late	em_task_pre	n/a	n/a	n/a	n/a	n/a
102.0	2.3658949537203	4	late	em_task	n/a	n/a	n/a	n/a	24.6872070736332
104.3658949537203	0.75	4	late	em_task_post	n/a	n/a	n/a	n/a	n/a
112.0	1.5	5	late	stimulus	n/a	127.5	n/a	n/a	n/a
123.5	0.5	5	late	dm_task_pre	n/a	n/a	n/a	n/a	n/a
124.0	1.5	5	late	dm_task	n/a	n/a	0.0	n/a	n/a
125.5	0.75	5	late	dm_task_post	n/a	n/a	n/a	n/a	n/a
129.5	0.5	5	late	em_task_pre	n/a	n/a	n/a	n/a	n/a
130.0	2.622346305754	5	late	em_task	n/a	n/a	n/a	n/a	128.842376960922
132.622346305754	0.75	5	late	em_task_post	n/a	n/a	n/a	n/a	n/a
140.0	1.5	6	early	stimulus	n/a	75.0	n/a	n/a	n/a
145.5	0.5	6	early	dm_task_pre	n/a	n/a	n/a	n/a	n/a
146.0	0.782836291007698	6	early	dm_task	0.782836291007698	n/a	21.0	-1.0	n/a
146.7828362910077	0.75	6	early	dm_task_post	n/a	n/a	n/a	n/a	n/a
157.5	0.5	6	early	em_task_pre	n/a	n/a	n/a	n/a	n/a
158.0	3.0775550468825017	6	early	em_task	n/a	n/a	n/a	n/a	78.2728206204332
161.0775550468825	0.75	6	early	em_task_post	n/a	n/a	n/a	n/a	n/a
168.0	1.5	7	early	stimulus	n/a	157.5	n/a	n/a	n/a
173.5	0.5	7	early	dm_task_pre	n/a	n/a	n/a	n/a	n/a
174.0	0.891052432823926	7	early	dm_task	0.891052432823926	n/a	4.0	-1.0	n/a
174.89105243282393	0.75	7	early	dm_task_post	n/a	n/a	n/a	n/a	n/a
185.5	0.5	7	early	em_task_pre	n/a	n/a	n/a	n/a	n/a
186.0	2.2514911689796016	7	early	em_task	n/a	n/a	n/a	n/a	169.743806710283
188.2514911689796	0.75	7	early	em_task_post	n/a	n/a	n/a	n/a	n/a
196.0	1.5	8	early	stimulus	n/a	22.5	n/a	n/a	n/a
201.5	0.5	8	early	dm_task_pre	n/a	n/a	n/a	n/a	n/a
202.0	0.828859040047973	8	early	dm_task	0.828859040047973	n/a	0.0	1.0	n/a
202.82885904004797	0.75	8	early	dm_task_post	n/a	n/a	n/a	n/a	n/a
213.5	0.5	8	early	em_task_pre	n/a	n/a	n/a	n/a	n/a
214.0	2.341838739812399	8	early	em_task	n/a	n/a	n/a	n/a	29.4122410566063
216.3418387398124	0.75	8	early	em_task_post	n/a	n/a	n/a	n/a	n/a
224.0	1.5	9	early	stimulus	n/a	112.5	n/a	n/a	n/a
229.5	0.5	9	early	dm_task_pre	n/a	n/a	n/a	n/a	n/a
230.0	0.885448270943016	9	early	dm_task	0.885448270943016	n/a	0.0	-1.0	n/a
230.88544827094302	0.75	9	early	dm_task_post	n/a	n/a	n/a	n/a	n/a
241.5	0.5	9	early	em_task_pre	n/a	n/a	n/a	n/a	n/a
242.0	2.6472926130517997	9	early	em_task	n/a	n/a	n/a	n/a	103.694668175846
244.6472926130518	0.75	9	early	em_task_post	n/a	n/a	n/a	n/a	n/a
252.0	1.5	10	early	stimulus	n/a	172.5	n/a	n/a	n/a
257.5	0.5	10	early	dm_task_pre	n/a	n/a	n/a	n/a	n/a
258.0	0.724795169662684	10	early	dm_task	0.724795169662684	n/a	-4.0	1.0	n/a
258.7247951696627	0.75	10	early	dm_task_post	n/a	n/a	n/a	n/a	n/a
269.5	0.5	10	early	em_task_pre	n/a	n/a	n/a	n/a	n/a
270.0	1.6384723349474015	10	early	em_task	n/a	n/a	n/a	n/a	176.221893462734
271.6384723349474	0.75	10	early	em_task_post	n/a	n/a	n/a	n/a	n/a
280.0	1.5	11	late	stimulus	n/a	52.5	n/a	n/a	n/a
291.5	0.5	11	late	dm_task_pre	n/a	n/a	n/a	n/a	n/a
292.0	0.014515760820359	11	late	dm_task	0.014515760820359	n/a	4.0	-1.0	n/a
292.01451576082036	0.75	11	late	dm_task_post	n/a	n/a	n/a	n/a	n/a
297.5	0.5	11	late	em_task_pre	n/a	n/a	n/a	n/a	n/a
298.0	2.3619694439694	11	late	em_task	n/a	n/a	n/a	n/a	76.0808804890209
300.36196944396943	0.75	11	late	em_task_post	n/a	n/a	n/a	n/a	n/a
308.0	1.5	12	early	stimulus	n/a	82.5	n/a	n/a	n/a
313.5	0.5	12	early	dm_task_pre	n/a	n/a	n/a	n/a	n/a
314.0	0.638815524987876	12	early	dm_task	0.638815524987876	n/a	21.0	-1.0	n/a
314.6388155249879	0.75	12	early	dm_task_post	n/a	n/a	n/a	n/a	n/a
325.5	0.5	12	early	em_task_pre	n/a	n/a	n/a	n/a	n/a
326.0	2.2839988349006006	12	early	em_task	n/a	n/a	n/a	n/a	83.3821538991485
328.2839988349006	0.75	12	early	em_task_post	n/a	n/a	n/a	n/a	n/a
