onset	duration	trial	trial_type	event_type	response_time	value_stimulus	value_reference	response_decision	response_estimation
0.0	1.5	1	late	stimulus	n/a	127.5	n/a	n/a	n/a
11.5	0.5	1	late	dm_task_pre	n/a	n/a	n/a	n/a	n/a
12.0	1.15407026797766	1	late	dm_task	1.15407026797766	n/a	0.0	1.0	n/a
13.15407026797766	0.75	1	late	dm_task_post	n/a	n/a	n/a	n/a	n/a
17.5	0.5	1	late	em_task_pre	n/a	n/a	n/a	n/a	n/a
18.0	3.508275603991901	1	late	em_task	n/a	n/a	n/a	n/a	141.229119364501
21.5082756039919	0.75	1	late	em_task_post	n/a	n/a	n/a	n/a	n/a
28.0	1.5	2	early	stimulus	n/a	15.0	n/a	n/a	n/a
33.5	0.5	2	early	dm_task_pre	n/a	n/a	n/a	n/a	n/a
34.0	0.695203263981966	2	early	dm_task	0.695203263981966	n/a	-21.0	1.0	n/a
34.695203263981966	0.75	2	early	dm_task_post	n/a	n/a	n/a	n/a	n/a
45.5	0.5	2	early	em_task_pre	n/a	n/a	n/a	n/a	n/a
46.0	4.5	2	early	em_task	n/a	n/a	n/a	n/a	n/a
50.5	0.75	2	early	em_task_post	n/a	n/a	n/a	n/a	n/a
56.0	1.5	3	early	stimulus	n/a	45.0	n/a	n/a	n/a
61.5	0.5	3	early	dm_task_pre	n/a	n/a	n/a	n/a	n/a
62.0	0.602344087994425	3	early	dm_task	0.602344087994425	n/a	-21.0	1.0	n/a
62.602344087994425	0.75	3	early	dm_task_post	n/a	n/a	n/a	n/a	n/a
73.5	0.5	3	early	em_task_pre	n/a	n/a	n/a	n/a	n/a
74.0	3.6749685789982003	3	early	em_task	n/a	n/a	n/a	n/a	38.4680571309505
77.6749685789982	0.75	3	early	em_task_post	n/a	n/a	n/a	n/a	n/a
84.0	1.5	4	early	stimulus	n/a	165.0	n/a	n/a	n/a
89.5	0.5	4	early	dm_task_pre	n/a	n/a	n/a	n/a	n/a
90.0	0.78071050698054	4	early	dm_task	0.78071050698054	n/a	-4.0	-1.0	n/a
90.78071050698054	0.75	4	early	dm_task_post	n/a	n/a	n/a	n/a	n/a
101.5	0.5	4	early	em_task_pre	n/a	n/a	n/a	n/a	n/a
102.0	4.151247597998001	4	early	em_task	n/a	n/a	n/a	n/a	155.204074616388
106.15124759799801	0.75	4	early	em_task_post	n/a	n/a	n/a	n/a	n/a
112.0	1.5	5	late	stimulus	n/a	7.5	n/a	n/a	n/a
123.5	0.5	5	late	dm_task_pre	n/a	n/a	n/a	n/a	n/a
124.0	0.473995378997643	5	late	dm_task	0.473995378997643	n/a	-21.0	1.0	n/a
124.47399537899764	0.75	5	late	dm_task_post	n/a	n/a	n/a	n/a	n/a
129.5	0.5	5	late	em_task_pre	n/a	n/a	n/a	n/a	n/a
130.0	4.2448639249778	5	late	em_task	n/a	n/a	n/a	n/a	2.31103740067357
134.2448639249778	0.75	5	late	em_task_post	n/a	n/a	n/a	n/a	n/a
140.0	1.5	6	late	stimulus	n/a	150.0	n/a	n/a	n/a
151.5	0.5	6	late	dm_task_pre	n/a	n/a	n/a	n/a	n/a
152.0	1.5	6	late	dm_task	1.53373109200038	n/a	4.0	-1.0	n/a
153.5	0.75	6	late	dm_task_post	n/a	n/a	n/a	n/a	n/a
157.5	0.5	6	late	em_task_pre	n/a	n/a	n/a	n/a	n/a
158.0	3.9022715920000017	6	late	em_task	n/a	n/a	n/a	n/a	148.870125788931
161.902271592	0.75	6	late	em_task_post	n/a	n/a	n/a	n/a	n/a
168.0	1.5	7	late	stimulus	n/a	105.0	n/a	n/a	n/a
179.5	0.5	7	late	dm_task_pre	n/a	n/a	n/a	n/a	n/a
180.0	0.60839946300257	7	late	dm_task	0.60839946300257	n/a	21.0	-1.0	n/a
180.60839946300257	0.75	7	late	dm_task_post	n/a	n/a	n/a	n/a	n/a
185.5	0.5	7	late	em_task_pre	n/a	n/a	n/a	n/a	n/a
186.0	2.8947140660020985	7	late	em_task	n/a	n/a	n/a	n/a	99.7054243029291
188.8947140660021	0.75	7	late	em_task_post	n/a	n/a	n/a	n/a	n/a
196.0	1.5	8	late	stimulus	n/a	120.0	n/a	n/a	n/a
207.5	0.5	8	late	dm_task_pre	n/a	n/a	n/a	n/a	n/a
208.0	1.16869598298217	8	late	dm_task	1.16869598298217	n/a	-4.0	1.0	n/a
209.16869598298217	0.75	8	late	dm_task_post	n/a	n/a	n/a	n/a	n/a
213.5	0.5	8	late	em_task_pre	n/a	n/a	n/a	n/a	n/a
214.0	2.2361520830018016	8	late	em_task	n/a	n/a	n/a	n/a	127.697578648098
216.2361520830018	0.75	8	late	em_task_post	n/a	n/a	n/a	n/a	n/a
224.0	1.5	9	early	stimulus	n/a	52.5	n/a	n/a	n/a
229.5	0.5	9	early	dm_task_pre	n/a	n/a	n/a	n/a	n/a
230.0	1.39182223399985	9	early	dm_task	1.39182223399985	n/a	-21.0	1.0	n/a
231.39182223399985	0.75	9	early	dm_task_post	n/a	n/a	n/a	n/a	n/a
241.5	0.5	9	early	em_task_pre	n/a	n/a	n/a	n/a	n/a
242.0	3.596619895979501	9	early	em_task	n/a	n/a	n/a	n/a	43.5722015230392
245.5966198959795	0.75	9	early	em_task_post	n/a	n/a	n/a	n/a	n/a
252.0	1.5	10	late	stimulus	n/a	157.5	n/a	n/a	n/a
263.5	0.5	10	late	dm_task_pre	n/a	n/a	n/a	n/a	n/a
264.0	0.818320103979204	10	late	dm_task	0.818320103979204	n/a	0.0	-1.0	n/a
264.8183201039792	0.75	10	late	dm_task_post	n/a	n/a	n/a	n/a	n/a
269.5	0.5	10	late	em_task_pre	n/a	n/a	n/a	n/a	n/a
270.0	4.5	10	late	em_task	n/a	n/a	n/a	n/a	n/a
274.5	0.75	10	late	em_task_post	n/a	n/a	n/a	n/a	n/a
280.0	1.5	11	late	stimulus	n/a	112.5	n/a	n/a	n/a
291.5	0.5	11	late	dm_task_pre	n/a	n/a	n/a	n/a	n/a
292.0	1.26247679500375	11	late	dm_task	1.26247679500375	n/a	-21.0	1.0	n/a
293.26247679500375	0.75	11	late	dm_task_post	n/a	n/a	n/a	n/a	n/a
297.5	0.5	11	late	em_task_pre	n/a	n/a	n/a	n/a	n/a
298.0	3.1640635169751015	11	late	em_task	n/a	n/a	n/a	n/a	99.5503074458228
301.1640635169751	0.75	11	late	em_task_post	n/a	n/a	n/a	n/a	n/a
308.0	1.5	12	late	stimulus	n/a	60.0	n/a	n/a	n/a
319.5	0.5	12	late	dm_task_pre	n/a	n/a	n/a	n/a	n/a
320.0	1.5	12	late	dm_task	1.52021872598561	n/a	21.0	-1.0	n/a
321.5	0.75	12	late	dm_task_post	n/a	n/a	n/a	n/a	n/a
325.5	0.5	12	late	em_task_pre	n/a	n/a	n/a	n/a	n/a
326.0	3.525110895978301	12	late	em_task	n/a	n/a	n/a	n/a	44.567919331044
329.5251108959783	0.75	12	late	em_task_post	n/a	n/a	n/a	n/a	n/a
