onset	duration	trial	trial_type	event_type	response_time	value_stimulus	value_reference	response_decision	response_estimation
0.0	1.5	1	early	stimulus	n/a	127.5	n/a	n/a	n/a
5.5	0.5	1	early	dm_task_pre	n/a	n/a	n/a	n/a	n/a
6.0	1.09176921100061	1	early	dm_task	1.09176921100061	n/a	-4.0	1.0	n/a
7.09176921100061	0.75	1	early	dm_task_post	n/a	n/a	n/a	n/a	n/a
17.5	0.5	1	early	em_task_pre	n/a	n/a	n/a	n/a	n/a
18.0	3.5209359179999	1	early	em_task	n/a	n/a	n/a	n/a	133.153566503134
21.5209359179999	0.75	1	early	em_task_post	n/a	n/a	n/a	n/a	n/a
28.0	1.5	2	early	stimulus	n/a	97.5	n/a	n/a	n/a
33.5	0.5	2	early	dm_task_pre	n/a	n/a	n/a	n/a	n/a
34.0	1.08278299300036	2	early	dm_task	1.08278299300036	n/a	21.0	-1.0	n/a
35.08278299300036	0.75	2	early	dm_task_post	n/a	n/a	n/a	n/a	n/a
45.5	0.5	2	early	em_task_pre	n/a	n/a	n/a	n/a	n/a
46.0	1.4947873760002004	2	early	em_task	n/a	n/a	n/a	n/a	105.775219072317
47.494787376000204	0.75	2	early	em_task_post	n/a	n/a	n/a	n/a	n/a
56.0	1.5	3	late	stimulus	n/a	157.5	n/a	n/a	n/a
67.5	0.5	3	late	dm_task_pre	n/a	n/a	n/a	n/a	n/a
68.0	0.969939565000459	3	late	dm_task	0.969939565000459	n/a	0.0	-1.0	n/a
68.96993956500046	0.75	3	late	dm_task_post	n/a	n/a	n/a	n/a	n/a
73.5	0.5	3	late	em_task_pre	n/a	n/a	n/a	n/a	n/a
74.0	3.1351820000000004	3	late	em_task	n/a	n/a	n/a	n/a	151.729031309927
77.135182	0.75	3	late	em_task_post	n/a	n/a	n/a	n/a	n/a
84.0	1.5	4	early	stimulus	n/a	105.0	n/a	n/a	n/a
89.5	0.5	4	early	dm_task_pre	n/a	n/a	n/a	n/a	n/a
90.0	0.679827947999911	4	early	dm_task	0.679827947999911	n/a	-21.0	1.0	n/a
90.67982794799991	0.75	4	early	dm_task_post	n/a	n/a	n/a	n/a	n/a
101.5	0.5	4	early	em_task_pre	n/a	n/a	n/a	n/a	n/a
102.0	3.1860352419998996	4	early	em_task	n/a	n/a	n/a	n/a	111.777912074313
105.1860352419999	0.75	4	early	em_task_post	n/a	n/a	n/a	n/a	n/a
112.0	1.5	5	late	stimulus	n/a	60.0	n/a	n/a	n/a
123.5	0.5	5	late	dm_task_pre	n/a	n/a	n/a	n/a	n/a
124.0	0.557757175000006	5	late	dm_task	0.557757175000006	n/a	-21.0	1.0	n/a
124.557757175	0.75	5	late	dm_task_post	n/a	n/a	n/a	n/a	n/a
129.5	0.5	5	late	em_task_pre	n/a	n/a	n/a	n/a	n/a
130.0	2.1162960130005004	5	late	em_task	n/a	n/a	n/a	n/a	61.9412208827215
132.1162960130005	0.75	5	late	em_task_post	n/a	n/a	n/a	n/a	n/a
140.0	1.5	6	early	stimulus	n/a	7.5	n/a	n/a	n/a
145.5	0.5	6	early	dm_task_pre	n/a	n/a	n/a	n/a	n/a
146.0	0.698232077999819	6	early	dm_task	0.698232077999819	n/a	21.0	-1.0	n/a
146.69823207799982	0.75	6	early	dm_task_post	n/a	n/a	n/a	n/a	n/a
157.5	0.5	6	early	em_task_pre	n/a	n/a	n/a	n/a	n/a
158.0	2.5425398329999	6	early	em_task	n/a	n/a	n/a	n/a	18.1517983211754
160.5425398329999	0.75	6	early	em_task_post	n/a	n/a	n/a	n/a	n/a
168.0	1.5	7	late	stimulus	n/a	45.0	n/a	n/a	n/a
179.5	0.5	7	late	dm_task_pre	n/a	n/a	n/a	n/a	n/a
180.0	0.754284489000383	7	late	dm_task	0.754284489000383	n/a	4.0	-1.0	n/a
180.75428448900038	0.75	7	late	dm_task_post	n/a	n/a	n/a	n/a	n/a
185.5	0.5	7	late	em_task_pre	n/a	n/a	n/a	n/a	n/a
186.0	3.0000454680003017	7	late	em_task	n/a	n/a	n/a	n/a	30.6836519703968
189.0000454680003	0.75	7	late	em_task_post	n/a	n/a	n/a	n/a	n/a
196.0	1.5	8	early	stimulus	n/a	165.0	n/a	n/a	n/a
201.5	0.5	8	early	dm_task_pre	n/a	n/a	n/a	n/a	n/a
202.0	0.547270808000576	8	early	dm_task	0.547270808000576	n/a	4.0	-1.0	n/a
202.54727080800058	0.75	8	early	dm_task_post	n/a	n/a	n/a	n/a	n/a
213.5	0.5	8	early	em_task_pre	n/a	n/a	n/a	n/a	n/a
214.0	2.991767664000701	8	early	em_task	n/a	n/a	n/a	n/a	154.549716383351
216.9917676640007	0.75	8	early	em_task_post	n/a	n/a	n/a	n/a	n/a
224.0	1.5	9	early	stimulus	n/a	67.5	n/a	n/a	n/a
229.5	0.5	9	early	dm_task_pre	n/a	n/a	n/a	n/a	n/a
230.0	0.68614579899986	9	early	dm_task	0.68614579899986	n/a	-4.0	1.0	n/a
230.68614579899986	0.75	9	early	dm_task_post	n/a	n/a	n/a	n/a	n/a
241.5	0.5	9	early	em_task_pre	n/a	n/a	n/a	n/a	n/a
242.0	3.2160830689999997	9	early	em_task	n/a	n/a	n/a	n/a	79.7796875802184
245.216083069	0.75	9	early	em_task_post	n/a	n/a	n/a	n/a	n/a
252.0	1.5	10	late	stimulus	n/a	75.0	n/a	n/a	n/a
263.5	0.5	10	late	dm_task_pre	n/a	n/a	n/a	n/a	n/a
264.0	0.511487042000226	10	late	dm_task	0.511487042000226	n/a	21.0	-1.0	n/a
264.5114870420002	0.75	10	late	dm_task_post	n/a	n/a	n/a	n/a	n/a
269.5	0.5	10	late	em_task_pre	n/a	n/a	n/a	n/a	n/a
270.0	2.7240876920004986	10	late	em_task	n/a	n/a	n/a	n/a	76.5918517052966
272.7240876920005	0.75	10	late	em_task_post	n/a	n/a	n/a	n/a	n/a
280.0	1.5	11	late	stimulus	n/a	135.0	n/a	n/a	n/a
291.5	0.5	11	late	dm_task_pre	n/a	n/a	n/a	n/a	n/a
292.0	0.702366977000565	11	late	dm_task	0.702366977000565	n/a	0.0	-1.0	n/a
292.70236697700057	0.75	11	late	dm_task_post	n/a	n/a	n/a	n/a	n/a
297.5	0.5	11	late	em_task_pre	n/a	n/a	n/a	n/a	n/a
298.0	2.5821638369998006	11	late	em_task	n/a	n/a	n/a	n/a	118.752798593906
300.5821638369998	0.75	11	late	em_task_post	n/a	n/a	n/a	n/a	n/a
308.0	1.5	12	late	stimulus	n/a	90.0	n/a	n/a	n/a
319.5	0.5	12	late	dm_task_pre	n/a	n/a	n/a	n/a	n/a
320.0	0.627061485000013	12	late	dm_task	0.627061485000013	n/a	4.0	-1.0	n/a
320.627061485	0.75	12	late	dm_task_post	n/a	n/a	n/a	n/a	n/a
325.5	0.5	12	late	em_task_pre	n/a	n/a	n/a	n/a	n/a
326.0	2.2582865850000005	12	late	em_task	n/a	n/a	n/a	n/a	92.4305171626106
328.258286585	0.75	12	late	em_task_post	n/a	n/a	n/a	n/a	n/a
