onset	duration	trial	trial_type	event_type	response_time	value_stimulus	value_reference	response_decision	response_estimation
0.0	1.5	1	early	stimulus	n/a	165.0	n/a	n/a	n/a
5.5	0.5	1	early	dm_task_pre	n/a	n/a	n/a	n/a	n/a
6.0	0.714978586000143	1	early	dm_task	0.714978586000143	n/a	-21.0	1.0	n/a
6.714978586000143	0.75	1	early	dm_task_post	n/a	n/a	n/a	n/a	n/a
17.5	0.5	1	early	em_task_pre	n/a	n/a	n/a	n/a	n/a
18.0	2.1005024050000003	1	early	em_task	n/a	n/a	n/a	n/a	156.697869364501
20.100502405	0.75	1	early	em_task_post	n/a	n/a	n/a	n/a	n/a
28.0	1.5	2	early	stimulus	n/a	75.0	n/a	n/a	n/a
33.5	0.5	2	early	dm_task_pre	n/a	n/a	n/a	n/a	n/a
34.0	0.606606886000009	2	early	dm_task	0.606606886000009	n/a	21.0	-1.0	n/a
34.60660688600001	0.75	2	early	dm_task_post	n/a	n/a	n/a	n/a	n/a
45.5	0.5	2	early	em_task_pre	n/a	n/a	n/a	n/a	n/a
46.0	4.5	2	early	em_task	n/a	n/a	n/a	n/a	n/a
50.5	0.75	2	early	em_task_post	n/a	n/a	n/a	n/a	n/a
56.0	1.5	3	early	stimulus	n/a	150.0	n/a	n/a	n/a
61.5	0.5	3	early	dm_task_pre	n/a	n/a	n/a	n/a	n/a
62.0	0.831086784000036	3	early	dm_task	0.831086784000036	n/a	-4.0	-1.0	n/a
62.831086784000036	0.75	3	early	dm_task_post	n/a	n/a	n/a	n/a	n/a
73.5	0.5	3	early	em_task_pre	n/a	n/a	n/a	n/a	n/a
74.0	1.4088910680002016	3	early	em_task	n/a	n/a	n/a	n/a	136.90555713095
75.4088910680002	0.75	3	early	em_task_post	n/a	n/a	n/a	n/a	n/a
84.0	1.5	4	late	stimulus	n/a	112.5	n/a	n/a	n/a
95.5	0.5	4	late	dm_task_pre	n/a	n/a	n/a	n/a	n/a
96.0	1.10370201700016	4	late	dm_task	1.10370201700016	n/a	0.0	1.0	n/a
97.10370201700016	0.75	4	late	dm_task_post	n/a	n/a	n/a	n/a	n/a
101.5	0.5	4	late	em_task_pre	n/a	n/a	n/a	n/a	n/a
102.0	1.9524040599998997	4	late	em_task	n/a	n/a	n/a	n/a	111.610324616388
103.9524040599999	0.75	4	late	em_task_post	n/a	n/a	n/a	n/a	n/a
112.0	1.5	5	late	stimulus	n/a	105.0	n/a	n/a	n/a
123.5	0.5	5	late	dm_task_pre	n/a	n/a	n/a	n/a	n/a
124.0	0.528425330000118	5	late	dm_task	0.528425330000118	n/a	-4.0	1.0	n/a
124.52842533000012	0.75	5	late	dm_task_post	n/a	n/a	n/a	n/a	n/a
129.5	0.5	5	late	em_task_pre	n/a	n/a	n/a	n/a	n/a
130.0	1.9578632400003002	5	late	em_task	n/a	n/a	n/a	n/a	107.779787400674
131.9578632400003	0.75	5	late	em_task_post	n/a	n/a	n/a	n/a	n/a
140.0	1.5	6	early	stimulus	n/a	37.5	n/a	n/a	n/a
145.5	0.5	6	early	dm_task_pre	n/a	n/a	n/a	n/a	n/a
146.0	1.13766909000014	6	early	dm_task	1.13766909000014	n/a	21.0	-1.0	n/a
147.13766909000014	0.75	6	early	dm_task_post	n/a	n/a	n/a	n/a	n/a
157.5	0.5	6	early	em_task_pre	n/a	n/a	n/a	n/a	n/a
158.0	1.8659060590002987	6	early	em_task	n/a	n/a	n/a	n/a	37.7763757889308
159.8659060590003	0.75	6	early	em_task_post	n/a	n/a	n/a	n/a	n/a
168.0	1.5	7	late	stimulus	n/a	7.5	n/a	n/a	n/a
179.5	0.5	7	late	dm_task_pre	n/a	n/a	n/a	n/a	n/a
180.0	0.808050094000009	7	late	dm_task	0.808050094000009	n/a	-4.0	1.0	n/a
180.808050094	0.75	7	late	dm_task_post	n/a	n/a	n/a	n/a	n/a
185.5	0.5	7	late	em_task_pre	n/a	n/a	n/a	n/a	n/a
186.0	3.0665132140001994	7	late	em_task	n/a	n/a	n/a	n/a	18.142924302929
189.0665132140002	0.75	7	late	em_task_post	n/a	n/a	n/a	n/a	n/a
196.0	1.5	8	early	stimulus	n/a	97.5	n/a	n/a	n/a
201.5	0.5	8	early	dm_task_pre	n/a	n/a	n/a	n/a	n/a
202.0	0.61792296800013	8	early	dm_task	0.61792296800013	n/a	4.0	-1.0	n/a
202.61792296800013	0.75	8	early	dm_task_post	n/a	n/a	n/a	n/a	n/a
213.5	0.5	8	early	em_task_pre	n/a	n/a	n/a	n/a	n/a
214.0	2.9983844750000017	8	early	em_task	n/a	n/a	n/a	n/a	98.8694536480979
216.998384475	0.75	8	early	em_task_post	n/a	n/a	n/a	n/a	n/a
224.0	1.5	9	early	stimulus	n/a	172.5	n/a	n/a	n/a
229.5	0.5	9	early	dm_task_pre	n/a	n/a	n/a	n/a	n/a
230.0	0.728331376999904	9	early	dm_task	0.728331376999904	n/a	0.0	-1.0	n/a
230.7283313769999	0.75	9	early	dm_task_post	n/a	n/a	n/a	n/a	n/a
241.5	0.5	9	early	em_task_pre	n/a	n/a	n/a	n/a	n/a
242.0	2.922547330000299	9	early	em_task	n/a	n/a	n/a	n/a	162.400326523039
244.9225473300003	0.75	9	early	em_task_post	n/a	n/a	n/a	n/a	n/a
252.0	1.5	10	early	stimulus	n/a	135.0	n/a	n/a	n/a
257.5	0.5	10	early	dm_task_pre	n/a	n/a	n/a	n/a	n/a
258.0	0.819614844000171	10	early	dm_task	0.819614844000171	n/a	21.0	-1.0	n/a
258.81961484400017	0.75	10	early	dm_task_post	n/a	n/a	n/a	n/a	n/a
269.5	0.5	10	early	em_task_pre	n/a	n/a	n/a	n/a	n/a
270.0	4.080621271999899	10	early	em_task	n/a	n/a	n/a	n/a	148.310059513414
274.0806212719999	0.75	10	early	em_task_post	n/a	n/a	n/a	n/a	n/a
280.0	1.5	11	late	stimulus	n/a	82.5	n/a	n/a	n/a
291.5	0.5	11	late	dm_task_pre	n/a	n/a	n/a	n/a	n/a
292.0	0.689711780999914	11	late	dm_task	0.689711780999914	n/a	21.0	-1.0	n/a
292.6897117809999	0.75	11	late	dm_task_post	n/a	n/a	n/a	n/a	n/a
297.5	0.5	11	late	em_task_pre	n/a	n/a	n/a	n/a	n/a
298.0	2.938685771000099	11	late	em_task	n/a	n/a	n/a	n/a	78.4565574458228
300.9386857710001	0.75	11	late	em_task_post	n/a	n/a	n/a	n/a	n/a
308.0	1.5	12	early	stimulus	n/a	45.0	n/a	n/a	n/a
313.5	0.5	12	early	dm_task_pre	n/a	n/a	n/a	n/a	n/a
314.0	0.732812858000216	12	early	dm_task	0.732812858000216	n/a	4.0	1.0	n/a
314.7328128580002	0.75	12	early	dm_task_post	n/a	n/a	n/a	n/a	n/a
325.5	0.5	12	early	em_task_pre	n/a	n/a	n/a	n/a	n/a
326.0	2.4117462610002	12	early	em_task	n/a	n/a	n/a	n/a	59.333544331044
328.4117462610002	0.75	12	early	em_task_post	n/a	n/a	n/a	n/a	n/a
