onset	duration	trial	trial_type	event_type	response_time	value_stimulus	value_reference	response_decision	response_estimation
0.0	1.5	1	late	stimulus	n/a	165.0	n/a	n/a	n/a
11.5	0.5	1	late	dm_task_pre	n/a	n/a	n/a	n/a	n/a
12.0	0.68072234999272	1	late	dm_task	0.68072234999272	n/a	21.0	-1.0	n/a
12.68072234999272	0.75	1	late	dm_task_post	n/a	n/a	n/a	n/a	n/a
17.5	0.5	1	late	em_task_pre	n/a	n/a	n/a	n/a	n/a
18.0	1.3509216239908994	1	late	em_task	n/a	n/a	n/a	n/a	142.921737397416
19.3509216239909	0.75	1	late	em_task_post	n/a	n/a	n/a	n/a	n/a
28.0	1.5	2	late	stimulus	n/a	142.5	n/a	n/a	n/a
39.5	0.5	2	late	dm_task_pre	n/a	n/a	n/a	n/a	n/a
40.0	0.639619878988015	2	late	dm_task	0.639619878988015	n/a	4.0	1.0	n/a
40.639619878988015	0.75	2	late	dm_task_post	n/a	n/a	n/a	n/a	n/a
45.5	0.5	2	late	em_task_pre	n/a	n/a	n/a	n/a	n/a
46.0	1.3416331470071015	2	late	em_task	n/a	n/a	n/a	n/a	139.118064704718
47.3416331470071	0.75	2	late	em_task_post	n/a	n/a	n/a	n/a	n/a
56.0	1.5	3	early	stimulus	n/a	52.5	n/a	n/a	n/a
61.5	0.5	3	early	dm_task_pre	n/a	n/a	n/a	n/a	n/a
62.0	0.765349856985267	3	early	dm_task	0.765349856985267	n/a	4.0	-1.0	n/a
62.76534985698527	0.75	3	early	dm_task_post	n/a	n/a	n/a	n/a	n/a
73.5	0.5	3	early	em_task_pre	n/a	n/a	n/a	n/a	n/a
74.0	1.5019744629972003	3	early	em_task	n/a	n/a	n/a	n/a	57.0325819527917
75.5019744629972	0.75	3	early	em_task_post	n/a	n/a	n/a	n/a	n/a
84.0	1.5	4	early	stimulus	n/a	97.5	n/a	n/a	n/a
89.5	0.5	4	early	dm_task_pre	n/a	n/a	n/a	n/a	n/a
90.0	0.940126158995554	4	early	dm_task	0.940126158995554	n/a	0.0	1.0	n/a
90.94012615899555	0.75	4	early	dm_task_post	n/a	n/a	n/a	n/a	n/a
101.5	0.5	4	early	em_task_pre	n/a	n/a	n/a	n/a	n/a
102.0	4.5	4	early	em_task	n/a	n/a	n/a	n/a	n/a
106.5	0.75	4	early	em_task_post	n/a	n/a	n/a	n/a	n/a
112.0	1.5	5	early	stimulus	n/a	22.5	n/a	n/a	n/a
117.5	0.5	5	early	dm_task_pre	n/a	n/a	n/a	n/a	n/a
118.0	0.716192368010525	5	early	dm_task	0.716192368010525	n/a	-4.0	1.0	n/a
118.71619236801052	0.75	5	early	dm_task_post	n/a	n/a	n/a	n/a	n/a
129.5	0.5	5	early	em_task_pre	n/a	n/a	n/a	n/a	n/a
130.0	2.302487001987199	5	early	em_task	n/a	n/a	n/a	n/a	21.2722403987488
132.3024870019872	0.75	5	early	em_task_post	n/a	n/a	n/a	n/a	n/a
140.0	1.5	6	early	stimulus	n/a	7.5	n/a	n/a	n/a
145.5	0.5	6	early	dm_task_pre	n/a	n/a	n/a	n/a	n/a
146.0	0.623912876006216	6	early	dm_task	0.623912876006216	n/a	-21.0	1.0	n/a
146.62391287600622	0.75	6	early	dm_task_post	n/a	n/a	n/a	n/a	n/a
157.5	0.5	6	early	em_task_pre	n/a	n/a	n/a	n/a	n/a
158.0	3.6458046009938982	6	early	em_task	n/a	n/a	n/a	n/a	20.1968757258485
161.6458046009939	0.75	6	early	em_task_post	n/a	n/a	n/a	n/a	n/a
168.0	1.5	7	late	stimulus	n/a	60.0	n/a	n/a	n/a
179.5	0.5	7	late	dm_task_pre	n/a	n/a	n/a	n/a	n/a
180.0	0.535259280004539	7	late	dm_task	0.535259280004539	n/a	0.0	-1.0	n/a
180.53525928000454	0.75	7	late	dm_task_post	n/a	n/a	n/a	n/a	n/a
185.5	0.5	7	late	em_task_pre	n/a	n/a	n/a	n/a	n/a
186.0	2.8880306890060012	7	late	em_task	n/a	n/a	n/a	n/a	63.6628685180071
188.888030689006	0.75	7	late	em_task_post	n/a	n/a	n/a	n/a	n/a
196.0	1.5	8	late	stimulus	n/a	30.0	n/a	n/a	n/a
207.5	0.5	8	late	dm_task_pre	n/a	n/a	n/a	n/a	n/a
208.0	0.628126039984636	8	late	dm_task	0.628126039984636	n/a	0.0	-1.0	n/a
208.62812603998464	0.75	8	late	dm_task_post	n/a	n/a	n/a	n/a	n/a
213.5	0.5	8	late	em_task_pre	n/a	n/a	n/a	n/a	n/a
214.0	4.2313880019938	8	late	em_task	n/a	n/a	n/a	n/a	2.72839821654826
218.2313880019938	0.75	8	late	em_task_post	n/a	n/a	n/a	n/a	n/a
224.0	1.5	9	late	stimulus	n/a	75.0	n/a	n/a	n/a
235.5	0.5	9	late	dm_task_pre	n/a	n/a	n/a	n/a	n/a
236.0	0.837181562004844	9	late	dm_task	0.837181562004844	n/a	-21.0	1.0	n/a
236.83718156200484	0.75	9	late	dm_task_post	n/a	n/a	n/a	n/a	n/a
241.5	0.5	9	late	em_task_pre	n/a	n/a	n/a	n/a	n/a
242.0	3.0904734120122015	9	late	em_task	n/a	n/a	n/a	n/a	53.1781351592054
245.09047341201222	0.75	9	late	em_task_post	n/a	n/a	n/a	n/a	n/a
252.0	1.5	10	late	stimulus	n/a	127.5	n/a	n/a	n/a
263.5	0.5	10	late	dm_task_pre	n/a	n/a	n/a	n/a	n/a
264.0	0.562592311005574	10	late	dm_task	0.562592311005574	n/a	0.0	1.0	n/a
264.5625923110056	0.75	10	late	dm_task_post	n/a	n/a	n/a	n/a	n/a
269.5	0.5	10	late	em_task_pre	n/a	n/a	n/a	n/a	n/a
270.0	2.0154749130015013	10	late	em_task	n/a	n/a	n/a	n/a	128.077792701397
272.0154749130015	0.75	10	late	em_task_post	n/a	n/a	n/a	n/a	n/a
280.0	1.5	11	late	stimulus	n/a	135.0	n/a	n/a	n/a
291.5	0.5	11	late	dm_task_pre	n/a	n/a	n/a	n/a	n/a
292.0	1.5	11	late	dm_task	n/a	n/a	-4.0	n/a	n/a
293.5	0.75	11	late	dm_task_post	n/a	n/a	n/a	n/a	n/a
297.5	0.5	11	late	em_task_pre	n/a	n/a	n/a	n/a	n/a
298.0	4.5	11	late	em_task	n/a	n/a	n/a	n/a	n/a
302.5	0.75	11	late	em_task_post	n/a	n/a	n/a	n/a	n/a
308.0	1.5	12	late	stimulus	n/a	90.0	n/a	n/a	n/a
319.5	0.5	12	late	dm_task_pre	n/a	n/a	n/a	n/a	n/a
320.0	0.831142732989974	12	late	dm_task	0.831142732989974	n/a	-21.0	1.0	n/a
320.83114273299	0.75	12	late	dm_task_post	n/a	n/a	n/a	n/a	n/a
325.5	0.5	12	late	em_task_pre	n/a	n/a	n/a	n/a	n/a
326.0	2.2671976280107984	12	late	em_task	n/a	n/a	n/a	n/a	87.883763808817
328.2671976280108	0.75	12	late	em_task_post	n/a	n/a	n/a	n/a	n/a
