onset	duration	trial	trial_type	event_type	response_time	value_stimulus	value_reference	response_decision	response_estimation
0.0	1.5	1	early	stimulus	n/a	165.0	n/a	n/a	n/a
5.5	0.5	1	early	dm_task_pre	n/a	n/a	n/a	n/a	n/a
6.0	1.3522866050007	1	early	dm_task	1.3522866050007	n/a	-21.0	1.0	n/a
7.3522866050007	0.75	1	early	dm_task_post	n/a	n/a	n/a	n/a	n/a
17.5	0.5	1	early	em_task_pre	n/a	n/a	n/a	n/a	n/a
18.0	2.0668910999992995	1	early	em_task	n/a	n/a	n/a	n/a	139.682733152813
20.0668910999993	0.75	1	early	em_task_post	n/a	n/a	n/a	n/a	n/a
28.0	1.5	2	late	stimulus	n/a	172.5	n/a	n/a	n/a
39.5	0.5	2	late	dm_task_pre	n/a	n/a	n/a	n/a	n/a
40.0	1.5	2	late	dm_task	n/a	n/a	21.0	n/a	n/a
41.5	0.75	2	late	dm_task_post	n/a	n/a	n/a	n/a	n/a
45.5	0.5	2	late	em_task_pre	n/a	n/a	n/a	n/a	n/a
46.0	2.3549396140005996	2	late	em_task	n/a	n/a	n/a	n/a	168.319001953217
48.3549396140006	0.75	2	late	em_task_post	n/a	n/a	n/a	n/a	n/a
56.0	1.5	3	early	stimulus	n/a	97.5	n/a	n/a	n/a
61.5	0.5	3	early	dm_task_pre	n/a	n/a	n/a	n/a	n/a
62.0	0.549248417999479	3	early	dm_task	0.549248417999479	n/a	-21.0	1.0	n/a
62.54924841799948	0.75	3	early	dm_task_post	n/a	n/a	n/a	n/a	n/a
73.5	0.5	3	early	em_task_pre	n/a	n/a	n/a	n/a	n/a
74.0	3.6113178170017015	3	early	em_task	n/a	n/a	n/a	n/a	89.3221186145072
77.6113178170017	0.75	3	early	em_task_post	n/a	n/a	n/a	n/a	n/a
84.0	1.5	4	late	stimulus	n/a	60.0	n/a	n/a	n/a
95.5	0.5	4	late	dm_task_pre	n/a	n/a	n/a	n/a	n/a
96.0	0.887120160001359	4	late	dm_task	0.887120160001359	n/a	21.0	-1.0	n/a
96.88712016000136	0.75	4	late	dm_task_post	n/a	n/a	n/a	n/a	n/a
101.5	0.5	4	late	em_task_pre	n/a	n/a	n/a	n/a	n/a
102.0	2.5840855660025994	4	late	em_task	n/a	n/a	n/a	n/a	57.7310291581423
104.5840855660026	0.75	4	late	em_task_post	n/a	n/a	n/a	n/a	n/a
112.0	1.5	5	early	stimulus	n/a	82.5	n/a	n/a	n/a
117.5	0.5	5	early	dm_task_pre	n/a	n/a	n/a	n/a	n/a
118.0	1.5	5	early	dm_task	n/a	n/a	-21.0	n/a	n/a
119.5	0.75	5	early	dm_task_post	n/a	n/a	n/a	n/a	n/a
129.5	0.5	5	early	em_task_pre	n/a	n/a	n/a	n/a	n/a
130.0	2.4761229760005996	5	early	em_task	n/a	n/a	n/a	n/a	71.3517783407432
132.4761229760006	0.75	5	early	em_task_post	n/a	n/a	n/a	n/a	n/a
140.0	1.5	6	late	stimulus	n/a	105.0	n/a	n/a	n/a
151.5	0.5	6	late	dm_task_pre	n/a	n/a	n/a	n/a	n/a
152.0	0.96642808300021	6	late	dm_task	0.96642808300021	n/a	-4.0	-1.0	n/a
152.9664280830002	0.75	6	late	dm_task_post	n/a	n/a	n/a	n/a	n/a
157.5	0.5	6	late	em_task_pre	n/a	n/a	n/a	n/a	n/a
158.0	2.0136365329999997	6	late	em_task	n/a	n/a	n/a	n/a	72.0073746599575
160.013636533	0.75	6	late	em_task_post	n/a	n/a	n/a	n/a	n/a
168.0	1.5	7	early	stimulus	n/a	7.5	n/a	n/a	n/a
173.5	0.5	7	early	dm_task_pre	n/a	n/a	n/a	n/a	n/a
174.0	0.692116704001819	7	early	dm_task	0.692116704001819	n/a	-4.0	1.0	n/a
174.69211670400182	0.75	7	early	dm_task_post	n/a	n/a	n/a	n/a	n/a
185.5	0.5	7	early	em_task_pre	n/a	n/a	n/a	n/a	n/a
186.0	1.986907843002001	7	early	em_task	n/a	n/a	n/a	n/a	21.5922182007909
187.986907843002	0.75	7	early	em_task_post	n/a	n/a	n/a	n/a	n/a
196.0	1.5	8	early	stimulus	n/a	75.0	n/a	n/a	n/a
201.5	0.5	8	early	dm_task_pre	n/a	n/a	n/a	n/a	n/a
202.0	0.548608720997436	8	early	dm_task	0.548608720997436	n/a	-4.0	-1.0	n/a
202.54860872099744	0.75	8	early	dm_task_post	n/a	n/a	n/a	n/a	n/a
213.5	0.5	8	early	em_task_pre	n/a	n/a	n/a	n/a	n/a
214.0	2.8601674139972992	8	early	em_task	n/a	n/a	n/a	n/a	65.734400323313
216.8601674139973	0.75	8	early	em_task_post	n/a	n/a	n/a	n/a	n/a
224.0	1.5	9	early	stimulus	n/a	0.0	n/a	n/a	n/a
229.5	0.5	9	early	dm_task_pre	n/a	n/a	n/a	n/a	n/a
230.0	0.554759333997936	9	early	dm_task	0.554759333997936	n/a	-4.0	-1.0	n/a
230.55475933399794	0.75	9	early	dm_task_post	n/a	n/a	n/a	n/a	n/a
241.5	0.5	9	early	em_task_pre	n/a	n/a	n/a	n/a	n/a
242.0	3.2836411589997	9	early	em_task	n/a	n/a	n/a	n/a	177.423384774676
245.2836411589997	0.75	9	early	em_task_post	n/a	n/a	n/a	n/a	n/a
252.0	1.5	10	late	stimulus	n/a	22.5	n/a	n/a	n/a
263.5	0.5	10	late	dm_task_pre	n/a	n/a	n/a	n/a	n/a
264.0	1.37614401200335	10	late	dm_task	1.37614401200335	n/a	-4.0	-1.0	n/a
265.37614401200335	0.75	10	late	dm_task_post	n/a	n/a	n/a	n/a	n/a
269.5	0.5	10	late	em_task_pre	n/a	n/a	n/a	n/a	n/a
270.0	2.7074816940038993	10	late	em_task	n/a	n/a	n/a	n/a	173.123367005286
272.7074816940039	0.75	10	late	em_task_post	n/a	n/a	n/a	n/a	n/a
280.0	1.5	11	early	stimulus	n/a	30.0	n/a	n/a	n/a
285.5	0.5	11	early	dm_task_pre	n/a	n/a	n/a	n/a	n/a
286.0	0.752338770002098	11	early	dm_task	0.752338770002098	n/a	0.0	-1.0	n/a
286.7523387700021	0.75	11	early	dm_task_post	n/a	n/a	n/a	n/a	n/a
297.5	0.5	11	early	em_task_pre	n/a	n/a	n/a	n/a	n/a
298.0	1.8307669820024017	11	early	em_task	n/a	n/a	n/a	n/a	16.7134213665014
299.8307669820024	0.75	11	early	em_task_post	n/a	n/a	n/a	n/a	n/a
308.0	1.5	12	early	stimulus	n/a	52.5	n/a	n/a	n/a
313.5	0.5	12	early	dm_task_pre	n/a	n/a	n/a	n/a	n/a
314.0	1.5	12	early	dm_task	1.72504619600295	n/a	-21.0	1.0	n/a
315.5	0.75	12	early	dm_task_post	n/a	n/a	n/a	n/a	n/a
325.5	0.5	12	early	em_task_pre	n/a	n/a	n/a	n/a	n/a
326.0	3.1361825219974016	12	early	em_task	n/a	n/a	n/a	n/a	48.5387649782486
329.1361825219974	0.75	12	early	em_task_post	n/a	n/a	n/a	n/a	n/a
