onset	duration	trial	trial_type	event_type	response_time	value_stimulus	value_reference	response_decision	response_estimation
0.0	1.5	1	late	stimulus	n/a	127.5	n/a	n/a	n/a
11.5	0.5	1	late	dm_task_pre	n/a	n/a	n/a	n/a	n/a
12.0	0.719392803002847	1	late	dm_task	0.719392803002847	n/a	21.0	-1.0	n/a
12.719392803002847	0.75	1	late	dm_task_post	n/a	n/a	n/a	n/a	n/a
17.5	0.5	1	late	em_task_pre	n/a	n/a	n/a	n/a	n/a
18.0	3.554174328994101	1	late	em_task	n/a	n/a	n/a	n/a	126.242865541409
21.5541743289941	0.75	1	late	em_task_post	n/a	n/a	n/a	n/a	n/a
28.0	1.5	2	late	stimulus	n/a	75.0	n/a	n/a	n/a
39.5	0.5	2	late	dm_task_pre	n/a	n/a	n/a	n/a	n/a
40.0	1.3110462790064	2	late	dm_task	1.3110462790064	n/a	-21.0	1.0	n/a
41.3110462790064	0.75	2	late	dm_task_post	n/a	n/a	n/a	n/a	n/a
45.5	0.5	2	late	em_task_pre	n/a	n/a	n/a	n/a	n/a
46.0	3.0472946060036	2	late	em_task	n/a	n/a	n/a	n/a	68.0265511460803
49.047294606003604	0.75	2	late	em_task_post	n/a	n/a	n/a	n/a	n/a
56.0	1.5	3	early	stimulus	n/a	45.0	n/a	n/a	n/a
61.5	0.5	3	early	dm_task_pre	n/a	n/a	n/a	n/a	n/a
62.0	1.23447015999409	3	early	dm_task	1.23447015999409	n/a	-4.0	1.0	n/a
63.23447015999409	0.75	3	early	dm_task_post	n/a	n/a	n/a	n/a	n/a
73.5	0.5	3	early	em_task_pre	n/a	n/a	n/a	n/a	n/a
74.0	1.5384611909976016	3	early	em_task	n/a	n/a	n/a	n/a	47.6724542986085
75.5384611909976	0.75	3	early	em_task_post	n/a	n/a	n/a	n/a	n/a
84.0	1.5	4	late	stimulus	n/a	7.5	n/a	n/a	n/a
95.5	0.5	4	late	dm_task_pre	n/a	n/a	n/a	n/a	n/a
96.0	0.895978643995477	4	late	dm_task	0.895978643995477	n/a	-4.0	1.0	n/a
96.89597864399548	0.75	4	late	dm_task_post	n/a	n/a	n/a	n/a	n/a
101.5	0.5	4	late	em_task_pre	n/a	n/a	n/a	n/a	n/a
102.0	2.9988317759999	4	late	em_task	n/a	n/a	n/a	n/a	13.3807523212557
104.9988317759999	0.75	4	late	em_task_post	n/a	n/a	n/a	n/a	n/a
112.0	1.5	5	early	stimulus	n/a	165.0	n/a	n/a	n/a
117.5	0.5	5	early	dm_task_pre	n/a	n/a	n/a	n/a	n/a
118.0	1.08540313900448	5	early	dm_task	1.08540313900448	n/a	21.0	1.0	n/a
119.08540313900448	0.75	5	early	dm_task_post	n/a	n/a	n/a	n/a	n/a
129.5	0.5	5	early	em_task_pre	n/a	n/a	n/a	n/a	n/a
130.0	1.6247085909999015	5	early	em_task	n/a	n/a	n/a	n/a	165.77129076631
131.6247085909999	0.75	5	early	em_task_post	n/a	n/a	n/a	n/a	n/a
140.0	1.5	6	early	stimulus	n/a	37.5	n/a	n/a	n/a
145.5	0.5	6	early	dm_task_pre	n/a	n/a	n/a	n/a	n/a
146.0	1.24584899000183	6	early	dm_task	1.24584899000183	n/a	4.0	1.0	n/a
147.24584899000183	0.75	6	early	dm_task_post	n/a	n/a	n/a	n/a	n/a
157.5	0.5	6	early	em_task_pre	n/a	n/a	n/a	n/a	n/a
158.0	3.050343887996899	6	early	em_task	n/a	n/a	n/a	n/a	47.8361665309388
161.0503438879969	0.75	6	early	em_task_post	n/a	n/a	n/a	n/a	n/a
168.0	1.5	7	late	stimulus	n/a	150.0	n/a	n/a	n/a
179.5	0.5	7	late	dm_task_pre	n/a	n/a	n/a	n/a	n/a
180.0	1.10727389100066	7	late	dm_task	1.10727389100066	n/a	0.0	-1.0	n/a
181.10727389100066	0.75	7	late	dm_task_post	n/a	n/a	n/a	n/a	n/a
185.5	0.5	7	late	em_task_pre	n/a	n/a	n/a	n/a	n/a
186.0	2.242050429995299	7	late	em_task	n/a	n/a	n/a	n/a	136.030739837297
188.2420504299953	0.75	7	late	em_task_post	n/a	n/a	n/a	n/a	n/a
196.0	1.5	8	early	stimulus	n/a	105.0	n/a	n/a	n/a
201.5	0.5	8	early	dm_task_pre	n/a	n/a	n/a	n/a	n/a
202.0	0.680323749998934	8	early	dm_task	0.680323749998934	n/a	-21.0	1.0	n/a
202.68032374999893	0.75	8	early	dm_task_post	n/a	n/a	n/a	n/a	n/a
213.5	0.5	8	early	em_task_pre	n/a	n/a	n/a	n/a	n/a
214.0	2.001473630007201	8	early	em_task	n/a	n/a	n/a	n/a	104.223732249517
216.0014736300072	0.75	8	early	em_task_post	n/a	n/a	n/a	n/a	n/a
224.0	1.5	9	early	stimulus	n/a	67.5	n/a	n/a	n/a
229.5	0.5	9	early	dm_task_pre	n/a	n/a	n/a	n/a	n/a
230.0	0.807547680000425	9	early	dm_task	0.807547680000425	n/a	-4.0	1.0	n/a
230.80754768000043	0.75	9	early	dm_task_post	n/a	n/a	n/a	n/a	n/a
241.5	0.5	9	early	em_task_pre	n/a	n/a	n/a	n/a	n/a
242.0	2.5450088960059993	9	early	em_task	n/a	n/a	n/a	n/a	70.6253606556227
244.545008896006	0.75	9	early	em_task_post	n/a	n/a	n/a	n/a	n/a
252.0	1.5	10	early	stimulus	n/a	15.0	n/a	n/a	n/a
257.5	0.5	10	early	dm_task_pre	n/a	n/a	n/a	n/a	n/a
258.0	0.914551586000016	10	early	dm_task	0.914551586000016	n/a	21.0	-1.0	n/a
258.914551586	0.75	10	early	dm_task_post	n/a	n/a	n/a	n/a	n/a
269.5	0.5	10	early	em_task_pre	n/a	n/a	n/a	n/a	n/a
270.0	2.3702488520066005	10	early	em_task	n/a	n/a	n/a	n/a	22.382097771055
272.3702488520066	0.75	10	early	em_task_post	n/a	n/a	n/a	n/a	n/a
280.0	1.5	11	late	stimulus	n/a	60.0	n/a	n/a	n/a
291.5	0.5	11	late	dm_task_pre	n/a	n/a	n/a	n/a	n/a
292.0	0.89296284300508	11	late	dm_task	0.89296284300508	n/a	21.0	-1.0	n/a
292.8929628430051	0.75	11	late	dm_task_post	n/a	n/a	n/a	n/a	n/a
297.5	0.5	11	late	em_task_pre	n/a	n/a	n/a	n/a	n/a
298.0	2.4622362240043003	11	late	em_task	n/a	n/a	n/a	n/a	58.0519962780694
300.4622362240043	0.75	11	late	em_task_post	n/a	n/a	n/a	n/a	n/a
308.0	1.5	12	late	stimulus	n/a	172.5	n/a	n/a	n/a
319.5	0.5	12	late	dm_task_pre	n/a	n/a	n/a	n/a	n/a
320.0	1.13615222700173	12	late	dm_task	1.13615222700173	n/a	4.0	-1.0	n/a
321.13615222700173	0.75	12	late	dm_task_post	n/a	n/a	n/a	n/a	n/a
325.5	0.5	12	late	em_task_pre	n/a	n/a	n/a	n/a	n/a
326.0	2.8893682659982005	12	late	em_task	n/a	n/a	n/a	n/a	160.12640377101
328.8893682659982	0.75	12	late	em_task_post	n/a	n/a	n/a	n/a	n/a
