onset	duration	trial	trial_type	event_type	response_time	value_stimulus	value_reference	response_decision	response_estimation
0.0	1.5	1	late	stimulus	n/a	67.5	n/a	n/a	n/a
11.5	0.5	1	late	dm_task_pre	n/a	n/a	n/a	n/a	n/a
12.0	0.891144458961207	1	late	dm_task	0.891144458961207	n/a	0.0	-1.0	n/a
12.891144458961207	0.75	1	late	dm_task_post	n/a	n/a	n/a	n/a	n/a
17.5	0.5	1	late	em_task_pre	n/a	n/a	n/a	n/a	n/a
18.0	3.0464169859770003	1	late	em_task	n/a	n/a	n/a	n/a	60.3697443645007
21.046416985977	0.75	1	late	em_task_post	n/a	n/a	n/a	n/a	n/a
28.0	1.5	2	early	stimulus	n/a	90.0	n/a	n/a	n/a
33.5	0.5	2	early	dm_task_pre	n/a	n/a	n/a	n/a	n/a
34.0	0.59824760700576	2	early	dm_task	0.59824760700576	n/a	21.0	-1.0	n/a
34.59824760700576	0.75	2	early	dm_task_post	n/a	n/a	n/a	n/a	n/a
45.5	0.5	2	early	em_task_pre	n/a	n/a	n/a	n/a	n/a
46.0	3.7704833239549984	2	early	em_task	n/a	n/a	n/a	n/a	90.0705401747033
49.770483323955	0.75	2	early	em_task_post	n/a	n/a	n/a	n/a	n/a
56.0	1.5	3	late	stimulus	n/a	45.0	n/a	n/a	n/a
67.5	0.5	3	late	dm_task_pre	n/a	n/a	n/a	n/a	n/a
68.0	1.07587325398345	3	late	dm_task	1.07587325398345	n/a	-21.0	1.0	n/a
69.07587325398345	0.75	3	late	dm_task_post	n/a	n/a	n/a	n/a	n/a
73.5	0.5	3	late	em_task_pre	n/a	n/a	n/a	n/a	n/a
74.0	3.5461642989540003	3	late	em_task	n/a	n/a	n/a	n/a	67.9993071309505
77.546164298954	0.75	3	late	em_task_post	n/a	n/a	n/a	n/a	n/a
84.0	1.5	4	early	stimulus	n/a	127.5	n/a	n/a	n/a
89.5	0.5	4	early	dm_task_pre	n/a	n/a	n/a	n/a	n/a
90.0	0.800618748995475	4	early	dm_task	0.800618748995475	n/a	-4.0	1.0	n/a
90.80061874899548	0.75	4	early	dm_task_post	n/a	n/a	n/a	n/a	n/a
101.5	0.5	4	early	em_task_pre	n/a	n/a	n/a	n/a	n/a
102.0	2.7398055179510017	4	early	em_task	n/a	n/a	n/a	n/a	139.735324616388
104.739805517951	0.75	4	early	em_task_post	n/a	n/a	n/a	n/a	n/a
112.0	1.5	5	early	stimulus	n/a	22.5	n/a	n/a	n/a
117.5	0.5	5	early	dm_task_pre	n/a	n/a	n/a	n/a	n/a
118.0	1.5	5	early	dm_task	1.57731727295322	n/a	-4.0	1.0	n/a
119.5	0.75	5	early	dm_task_post	n/a	n/a	n/a	n/a	n/a
129.5	0.5	5	early	em_task_pre	n/a	n/a	n/a	n/a	n/a
130.0	3.3485228570061984	5	early	em_task	n/a	n/a	n/a	n/a	31.1391624006736
133.3485228570062	0.75	5	early	em_task_post	n/a	n/a	n/a	n/a	n/a
140.0	1.5	6	late	stimulus	n/a	172.5	n/a	n/a	n/a
151.5	0.5	6	late	dm_task_pre	n/a	n/a	n/a	n/a	n/a
152.0	1.3550291369902	6	late	dm_task	1.3550291369902	n/a	0.0	-1.0	n/a
153.3550291369902	0.75	6	late	dm_task_post	n/a	n/a	n/a	n/a	n/a
157.5	0.5	6	late	em_task_pre	n/a	n/a	n/a	n/a	n/a
158.0	3.6892500009853	6	late	em_task	n/a	n/a	n/a	n/a	163.635750788931
161.6892500009853	0.75	6	late	em_task_post	n/a	n/a	n/a	n/a	n/a
168.0	1.5	7	early	stimulus	n/a	30.0	n/a	n/a	n/a
173.5	0.5	7	early	dm_task_pre	n/a	n/a	n/a	n/a	n/a
174.0	0.711517002957407	7	early	dm_task	0.711517002957407	n/a	-21.0	1.0	n/a
174.7115170029574	0.75	7	early	dm_task_post	n/a	n/a	n/a	n/a	n/a
185.5	0.5	7	early	em_task_pre	n/a	n/a	n/a	n/a	n/a
186.0	3.7505621349555014	7	early	em_task	n/a	n/a	n/a	n/a	46.267924302929
189.7505621349555	0.75	7	early	em_task_post	n/a	n/a	n/a	n/a	n/a
196.0	1.5	8	late	stimulus	n/a	60.0	n/a	n/a	n/a
207.5	0.5	8	late	dm_task_pre	n/a	n/a	n/a	n/a	n/a
208.0	0.721653593005612	8	late	dm_task	0.721653593005612	n/a	21.0	-1.0	n/a
208.7216535930056	0.75	8	late	dm_task_post	n/a	n/a	n/a	n/a	n/a
213.5	0.5	8	late	em_task_pre	n/a	n/a	n/a	n/a	n/a
214.0	3.7756471449974995	8	late	em_task	n/a	n/a	n/a	n/a	60.9007036480979
217.7756471449975	0.75	8	late	em_task_post	n/a	n/a	n/a	n/a	n/a
224.0	1.5	9	early	stimulus	n/a	165.0	n/a	n/a	n/a
229.5	0.5	9	early	dm_task_pre	n/a	n/a	n/a	n/a	n/a
230.0	1.5	9	early	dm_task	1.96332264196826	n/a	-4.0	-1.0	n/a
231.5	0.75	9	early	dm_task_post	n/a	n/a	n/a	n/a	n/a
241.5	0.5	9	early	em_task_pre	n/a	n/a	n/a	n/a	n/a
242.0	2.200807429966499	9	early	em_task	n/a	n/a	n/a	n/a	161.697201523039
244.2008074299665	0.75	9	early	em_task_post	n/a	n/a	n/a	n/a	n/a
252.0	1.5	10	early	stimulus	n/a	82.5	n/a	n/a	n/a
257.5	0.5	10	early	dm_task_pre	n/a	n/a	n/a	n/a	n/a
258.0	0.82141925097676	10	early	dm_task	0.82141925097676	n/a	-4.0	1.0	n/a
258.82141925097676	0.75	10	early	dm_task_post	n/a	n/a	n/a	n/a	n/a
269.5	0.5	10	early	em_task_pre	n/a	n/a	n/a	n/a	n/a
270.0	2.6933889449574018	10	early	em_task	n/a	n/a	n/a	n/a	85.0288095134141
272.6933889449574	0.75	10	early	em_task_post	n/a	n/a	n/a	n/a	n/a
280.0	1.5	11	late	stimulus	n/a	52.5	n/a	n/a	n/a
291.5	0.5	11	late	dm_task_pre	n/a	n/a	n/a	n/a	n/a
292.0	0.683690998004749	11	late	dm_task	0.683690998004749	n/a	4.0	1.0	n/a
292.68369099800475	0.75	11	late	dm_task_post	n/a	n/a	n/a	n/a	n/a
297.5	0.5	11	late	em_task_pre	n/a	n/a	n/a	n/a	n/a
298.0	3.6864564949646983	11	late	em_task	n/a	n/a	n/a	n/a	53.1440574458228
301.6864564949647	0.75	11	late	em_task_post	n/a	n/a	n/a	n/a	n/a
308.0	1.5	12	late	stimulus	n/a	37.5	n/a	n/a	n/a
319.5	0.5	12	late	dm_task_pre	n/a	n/a	n/a	n/a	n/a
320.0	0.741498135961592	12	late	dm_task	0.741498135961592	n/a	-4.0	1.0	n/a
320.7414981359616	0.75	12	late	dm_task_post	n/a	n/a	n/a	n/a	n/a
325.5	0.5	12	late	em_task_pre	n/a	n/a	n/a	n/a	n/a
326.0	3.695648612978399	12	late	em_task	n/a	n/a	n/a	n/a	50.192919331044
329.6956486129784	0.75	12	late	em_task_post	n/a	n/a	n/a	n/a	n/a
