onset	duration	trial	trial_type	event_type	response_time	value_stimulus	value_reference	response_decision	response_estimation
0.0	1.5	1	early	stimulus	n/a	90.0	n/a	n/a	n/a
5.5	0.5	1	early	dm_task_pre	n/a	n/a	n/a	n/a	n/a
6.0	1.112741486	1	early	dm_task	1.112741486	n/a	0.0	1.0	n/a
7.112741486	0.75	1	early	dm_task_post	n/a	n/a	n/a	n/a	n/a
17.5	0.5	1	early	em_task_pre	n/a	n/a	n/a	n/a	n/a
18.0	2.210488524999999	1	early	em_task	n/a	n/a	n/a	n/a	86.2452331528127
20.210488525	0.75	1	early	em_task_post	n/a	n/a	n/a	n/a	n/a
28.0	1.5	2	early	stimulus	n/a	7.5	n/a	n/a	n/a
33.5	0.5	2	early	dm_task_pre	n/a	n/a	n/a	n/a	n/a
34.0	1.25265257299998	2	early	dm_task	1.25265257299998	n/a	21.0	-1.0	n/a
35.25265257299998	0.75	2	early	dm_task_post	n/a	n/a	n/a	n/a	n/a
45.5	0.5	2	early	em_task_pre	n/a	n/a	n/a	n/a	n/a
46.0	2.3323821069999013	2	early	em_task	n/a	n/a	n/a	n/a	14.334626953217
48.3323821069999	0.75	2	early	em_task_post	n/a	n/a	n/a	n/a	n/a
56.0	1.5	3	late	stimulus	n/a	172.5	n/a	n/a	n/a
67.5	0.5	3	late	dm_task_pre	n/a	n/a	n/a	n/a	n/a
68.0	0.724823980999986	3	late	dm_task	0.724823980999986	n/a	-4.0	-1.0	n/a
68.72482398099999	0.75	3	late	dm_task_post	n/a	n/a	n/a	n/a	n/a
73.5	0.5	3	late	em_task_pre	n/a	n/a	n/a	n/a	n/a
74.0	2.1048669429999016	3	late	em_task	n/a	n/a	n/a	n/a	161.040868614507
76.1048669429999	0.75	3	late	em_task_post	n/a	n/a	n/a	n/a	n/a
84.0	1.5	4	early	stimulus	n/a	127.5	n/a	n/a	n/a
89.5	0.5	4	early	dm_task_pre	n/a	n/a	n/a	n/a	n/a
90.0	0.664730204999955	4	early	dm_task	0.664730204999955	n/a	0.0	1.0	n/a
90.66473020499996	0.75	4	early	dm_task_post	n/a	n/a	n/a	n/a	n/a
101.5	0.5	4	early	em_task_pre	n/a	n/a	n/a	n/a	n/a
102.0	3.0601344329998987	4	early	em_task	n/a	n/a	n/a	n/a	139.293529158142
105.0601344329999	0.75	4	early	em_task_post	n/a	n/a	n/a	n/a	n/a
112.0	1.5	5	early	stimulus	n/a	15.0	n/a	n/a	n/a
117.5	0.5	5	early	dm_task_pre	n/a	n/a	n/a	n/a	n/a
118.0	0.938986623999995	5	early	dm_task	0.938986623999995	n/a	4.0	-1.0	n/a
118.938986624	0.75	5	early	dm_task_post	n/a	n/a	n/a	n/a	n/a
129.5	0.5	5	early	em_task_pre	n/a	n/a	n/a	n/a	n/a
130.0	3.0509969379999013	5	early	em_task	n/a	n/a	n/a	n/a	19.3205283407432
133.0509969379999	0.75	5	early	em_task_post	n/a	n/a	n/a	n/a	n/a
140.0	1.5	6	late	stimulus	n/a	0.0	n/a	n/a	n/a
151.5	0.5	6	late	dm_task_pre	n/a	n/a	n/a	n/a	n/a
152.0	0.776933111999938	6	late	dm_task	0.776933111999938	n/a	21.0	-1.0	n/a
152.77693311199994	0.75	6	late	dm_task_post	n/a	n/a	n/a	n/a	n/a
157.5	0.5	6	late	em_task_pre	n/a	n/a	n/a	n/a	n/a
158.0	2.874531721999901	6	late	em_task	n/a	n/a	n/a	n/a	177.476124659958
160.87453172199992	0.75	6	late	em_task_post	n/a	n/a	n/a	n/a	n/a
168.0	1.5	7	early	stimulus	n/a	97.5	n/a	n/a	n/a
173.5	0.5	7	early	dm_task_pre	n/a	n/a	n/a	n/a	n/a
174.0	0.584053405999953	7	early	dm_task	0.584053405999953	n/a	4.0	1.0	n/a
174.58405340599995	0.75	7	early	dm_task_post	n/a	n/a	n/a	n/a	n/a
185.5	0.5	7	early	em_task_pre	n/a	n/a	n/a	n/a	n/a
186.0	3.1125630579998997	7	early	em_task	n/a	n/a	n/a	n/a	104.560968200791
189.1125630579999	0.75	7	early	em_task_post	n/a	n/a	n/a	n/a	n/a
196.0	1.5	8	late	stimulus	n/a	120.0	n/a	n/a	n/a
207.5	0.5	8	late	dm_task_pre	n/a	n/a	n/a	n/a	n/a
208.0	0.70791779700005	8	late	dm_task	0.70791779700005	n/a	-21.0	1.0	n/a
208.70791779700005	0.75	8	late	dm_task_post	n/a	n/a	n/a	n/a	n/a
213.5	0.5	8	late	em_task_pre	n/a	n/a	n/a	n/a	n/a
214.0	2.3201453599998985	8	late	em_task	n/a	n/a	n/a	n/a	116.359400323313
216.3201453599999	0.75	8	late	em_task_post	n/a	n/a	n/a	n/a	n/a
224.0	1.5	9	late	stimulus	n/a	60.0	n/a	n/a	n/a
235.5	0.5	9	late	dm_task_pre	n/a	n/a	n/a	n/a	n/a
236.0	0.696274045999985	9	late	dm_task	0.696274045999985	n/a	-21.0	1.0	n/a
236.69627404599998	0.75	9	late	dm_task_post	n/a	n/a	n/a	n/a	n/a
241.5	0.5	9	late	em_task_pre	n/a	n/a	n/a	n/a	n/a
242.0	2.0937040309998984	9	late	em_task	n/a	n/a	n/a	n/a	62.1108847746756
244.0937040309999	0.75	9	late	em_task_post	n/a	n/a	n/a	n/a	n/a
252.0	1.5	10	late	stimulus	n/a	82.5	n/a	n/a	n/a
263.5	0.5	10	late	dm_task_pre	n/a	n/a	n/a	n/a	n/a
264.0	0.535703672000068	10	late	dm_task	0.535703672000068	n/a	4.0	-1.0	n/a
264.53570367200007	0.75	10	late	dm_task_post	n/a	n/a	n/a	n/a	n/a
269.5	0.5	10	late	em_task_pre	n/a	n/a	n/a	n/a	n/a
270.0	1.4175600449999983	10	late	em_task	n/a	n/a	n/a	n/a	69.0608670052863
271.417560045	0.75	10	late	em_task_post	n/a	n/a	n/a	n/a	n/a
280.0	1.5	11	early	stimulus	n/a	150.0	n/a	n/a	n/a
285.5	0.5	11	early	dm_task_pre	n/a	n/a	n/a	n/a	n/a
286.0	0.844369427000061	11	early	dm_task	0.844369427000061	n/a	4.0	-1.0	n/a
286.84436942700006	0.75	11	early	dm_task_post	n/a	n/a	n/a	n/a	n/a
297.5	0.5	11	early	em_task_pre	n/a	n/a	n/a	n/a	n/a
298.0	2.056853390999901	11	early	em_task	n/a	n/a	n/a	n/a	162.260296366501
300.0568533909999	0.75	11	early	em_task_post	n/a	n/a	n/a	n/a	n/a
308.0	1.5	12	early	stimulus	n/a	105.0	n/a	n/a	n/a
313.5	0.5	12	early	dm_task_pre	n/a	n/a	n/a	n/a	n/a
314.0	0.683914283000036	12	early	dm_task	0.683914283000036	n/a	4.0	1.0	n/a
314.68391428300004	0.75	12	early	dm_task_post	n/a	n/a	n/a	n/a	n/a
325.5	0.5	12	early	em_task_pre	n/a	n/a	n/a	n/a	n/a
326.0	1.8967082339998989	12	early	em_task	n/a	n/a	n/a	n/a	120.257514978249
327.8967082339999	0.75	12	early	em_task_post	n/a	n/a	n/a	n/a	n/a
