onset	duration	trial	trial_type	event_type	response_time	value_stimulus	value_reference	response_decision	response_estimation
0.0	1.5	1	late	stimulus	n/a	37.5	n/a	n/a	n/a
11.5	0.5	1	late	dm_task_pre	n/a	n/a	n/a	n/a	n/a
12.0	0.893926945998828	1	late	dm_task	0.893926945998828	n/a	0.0	-1.0	n/a
12.893926945998828	0.75	1	late	dm_task_post	n/a	n/a	n/a	n/a	n/a
17.5	0.5	1	late	em_task_pre	n/a	n/a	n/a	n/a	n/a
18.0	3.024038332001499	1	late	em_task	n/a	n/a	n/a	n/a	38.6478575238147
21.0240383320015	0.75	1	late	em_task_post	n/a	n/a	n/a	n/a	n/a
28.0	1.5	2	late	stimulus	n/a	135.0	n/a	n/a	n/a
39.5	0.5	2	late	dm_task_pre	n/a	n/a	n/a	n/a	n/a
40.0	1.08120451600189	2	late	dm_task	1.08120451600189	n/a	-4.0	-1.0	n/a
41.08120451600189	0.75	2	late	dm_task_post	n/a	n/a	n/a	n/a	n/a
45.5	0.5	2	late	em_task_pre	n/a	n/a	n/a	n/a	n/a
46.0	3.3283886220015013	2	late	em_task	n/a	n/a	n/a	n/a	127.19150794292
49.3283886220015	0.75	2	late	em_task_post	n/a	n/a	n/a	n/a	n/a
56.0	1.5	3	early	stimulus	n/a	45.0	n/a	n/a	n/a
61.5	0.5	3	early	dm_task_pre	n/a	n/a	n/a	n/a	n/a
62.0	0.852726468001492	3	early	dm_task	0.852726468001492	n/a	0.0	1.0	n/a
62.85272646800149	0.75	3	early	dm_task_post	n/a	n/a	n/a	n/a	n/a
73.5	0.5	3	early	em_task_pre	n/a	n/a	n/a	n/a	n/a
74.0	2.982824753999001	3	early	em_task	n/a	n/a	n/a	n/a	58.8470281194544
76.982824753999	0.75	3	early	em_task_post	n/a	n/a	n/a	n/a	n/a
84.0	1.5	4	early	stimulus	n/a	127.5	n/a	n/a	n/a
89.5	0.5	4	early	dm_task_pre	n/a	n/a	n/a	n/a	n/a
90.0	0.792004970000562	4	early	dm_task	0.792004970000562	n/a	-4.0	-1.0	n/a
90.79200497000056	0.75	4	early	dm_task_post	n/a	n/a	n/a	n/a	n/a
101.5	0.5	4	early	em_task_pre	n/a	n/a	n/a	n/a	n/a
102.0	2.607925239000899	4	early	em_task	n/a	n/a	n/a	n/a	118.403979267326
104.6079252390009	0.75	4	early	em_task_post	n/a	n/a	n/a	n/a	n/a
112.0	1.5	5	late	stimulus	n/a	105.0	n/a	n/a	n/a
123.5	0.5	5	late	dm_task_pre	n/a	n/a	n/a	n/a	n/a
124.0	0.966233031002048	5	late	dm_task	0.966233031002048	n/a	0.0	1.0	n/a
124.96623303100205	0.75	5	late	dm_task_post	n/a	n/a	n/a	n/a	n/a
129.5	0.5	5	late	em_task_pre	n/a	n/a	n/a	n/a	n/a
130.0	4.5	5	late	em_task	n/a	n/a	n/a	n/a	n/a
134.5	0.75	5	late	em_task_post	n/a	n/a	n/a	n/a	n/a
140.0	1.5	6	late	stimulus	n/a	97.5	n/a	n/a	n/a
151.5	0.5	6	late	dm_task_pre	n/a	n/a	n/a	n/a	n/a
152.0	0.719182802000432	6	late	dm_task	0.719182802000432	n/a	-21.0	1.0	n/a
152.71918280200043	0.75	6	late	dm_task_post	n/a	n/a	n/a	n/a	n/a
157.5	0.5	6	late	em_task_pre	n/a	n/a	n/a	n/a	n/a
158.0	3.346181815999401	6	late	em_task	n/a	n/a	n/a	n/a	97.0585515660939
161.3461818159994	0.75	6	late	em_task_post	n/a	n/a	n/a	n/a	n/a
168.0	1.5	7	early	stimulus	n/a	7.5	n/a	n/a	n/a
173.5	0.5	7	early	dm_task_pre	n/a	n/a	n/a	n/a	n/a
174.0	0.672214807000273	7	early	dm_task	0.672214807000273	n/a	0.0	1.0	n/a
174.67221480700027	0.75	7	early	dm_task_post	n/a	n/a	n/a	n/a	n/a
185.5	0.5	7	early	em_task_pre	n/a	n/a	n/a	n/a	n/a
186.0	3.8867732069994005	7	early	em_task	n/a	n/a	n/a	n/a	19.4368361956362
189.8867732069994	0.75	7	early	em_task_post	n/a	n/a	n/a	n/a	n/a
196.0	1.5	8	early	stimulus	n/a	82.5	n/a	n/a	n/a
201.5	0.5	8	early	dm_task_pre	n/a	n/a	n/a	n/a	n/a
202.0	0.677319033999083	8	early	dm_task	0.677319033999083	n/a	4.0	-1.0	n/a
202.67731903399908	0.75	8	early	dm_task_post	n/a	n/a	n/a	n/a	n/a
213.5	0.5	8	early	em_task_pre	n/a	n/a	n/a	n/a	n/a
214.0	3.4998411599991	8	early	em_task	n/a	n/a	n/a	n/a	58.4175618324857
217.4998411599991	0.75	8	early	em_task_post	n/a	n/a	n/a	n/a	n/a
224.0	1.5	9	early	stimulus	n/a	142.5	n/a	n/a	n/a
229.5	0.5	9	early	dm_task_pre	n/a	n/a	n/a	n/a	n/a
230.0	0.697422436001943	9	early	dm_task	0.697422436001943	n/a	-21.0	1.0	n/a
230.69742243600194	0.75	9	early	dm_task_post	n/a	n/a	n/a	n/a	n/a
241.5	0.5	9	early	em_task_pre	n/a	n/a	n/a	n/a	n/a
242.0	2.6306614540008013	9	early	em_task	n/a	n/a	n/a	n/a	131.393815088237
244.6306614540008	0.75	9	early	em_task_post	n/a	n/a	n/a	n/a	n/a
252.0	1.5	10	late	stimulus	n/a	0.0	n/a	n/a	n/a
263.5	0.5	10	late	dm_task_pre	n/a	n/a	n/a	n/a	n/a
264.0	1.5	10	late	dm_task	1.59758404199965	n/a	21.0	-1.0	n/a
265.5	0.75	10	late	dm_task_post	n/a	n/a	n/a	n/a	n/a
269.5	0.5	10	late	em_task_pre	n/a	n/a	n/a	n/a	n/a
270.0	1.8518811550020011	10	late	em_task	n/a	n/a	n/a	n/a	167.4024202278
271.851881155002	0.75	10	late	em_task_post	n/a	n/a	n/a	n/a	n/a
280.0	1.5	11	late	stimulus	n/a	165.0	n/a	n/a	n/a
291.5	0.5	11	late	dm_task_pre	n/a	n/a	n/a	n/a	n/a
292.0	1.19174638899858	11	late	dm_task	1.19174638899858	n/a	-21.0	1.0	n/a
293.1917463889986	0.75	11	late	dm_task_post	n/a	n/a	n/a	n/a	n/a
297.5	0.5	11	late	em_task_pre	n/a	n/a	n/a	n/a	n/a
298.0	4.5	11	late	em_task	n/a	n/a	n/a	n/a	n/a
302.5	0.75	11	late	em_task_post	n/a	n/a	n/a	n/a	n/a
308.0	1.5	12	late	stimulus	n/a	120.0	n/a	n/a	n/a
319.5	0.5	12	late	dm_task_pre	n/a	n/a	n/a	n/a	n/a
320.0	1.21124421100103	12	late	dm_task	1.21124421100103	n/a	21.0	-1.0	n/a
321.21124421100103	0.75	12	late	dm_task_post	n/a	n/a	n/a	n/a	n/a
325.5	0.5	12	late	em_task_pre	n/a	n/a	n/a	n/a	n/a
326.0	3.499175542001499	12	late	em_task	n/a	n/a	n/a	n/a	122.69843072232
329.4991755420015	0.75	12	late	em_task_post	n/a	n/a	n/a	n/a	n/a
