onset	duration	trial	trial_type	event_type	response_time	value_stimulus	value_reference	response_decision	response_estimation
0.0	1.5	1	early	stimulus	n/a	45.0	n/a	n/a	n/a
5.5	0.5	1	early	dm_task_pre	n/a	n/a	n/a	n/a	n/a
6.0	0.687948356999186	1	early	dm_task	0.687948356999186	n/a	-21.0	1.0	n/a
6.687948356999186	0.75	1	early	dm_task_post	n/a	n/a	n/a	n/a	n/a
17.5	0.5	1	early	em_task_pre	n/a	n/a	n/a	n/a	n/a
18.0	1.7662835890005013	1	early	em_task	n/a	n/a	n/a	n/a	39.4624340092958
19.7662835890005	0.75	1	early	em_task_post	n/a	n/a	n/a	n/a	n/a
28.0	1.5	2	late	stimulus	n/a	142.5	n/a	n/a	n/a
39.5	0.5	2	late	dm_task_pre	n/a	n/a	n/a	n/a	n/a
40.0	0.856451675999779	2	late	dm_task	0.856451675999779	n/a	0.0	-1.0	n/a
40.85645167599978	0.75	2	late	dm_task_post	n/a	n/a	n/a	n/a	n/a
45.5	0.5	2	late	em_task_pre	n/a	n/a	n/a	n/a	n/a
46.0	1.8703009059990983	2	late	em_task	n/a	n/a	n/a	n/a	132.909500563936
47.8703009059991	0.75	2	late	em_task_post	n/a	n/a	n/a	n/a	n/a
56.0	1.5	3	late	stimulus	n/a	15.0	n/a	n/a	n/a
67.5	0.5	3	late	dm_task_pre	n/a	n/a	n/a	n/a	n/a
68.0	0.695811687999594	3	late	dm_task	0.695811687999594	n/a	-4.0	1.0	n/a
68.6958116879996	0.75	3	late	dm_task_post	n/a	n/a	n/a	n/a	n/a
73.5	0.5	3	late	em_task_pre	n/a	n/a	n/a	n/a	n/a
74.0	2.9405944419996004	3	late	em_task	n/a	n/a	n/a	n/a	21.4147648690597
76.9405944419996	0.75	3	late	em_task_post	n/a	n/a	n/a	n/a	n/a
84.0	1.5	4	late	stimulus	n/a	82.5	n/a	n/a	n/a
95.5	0.5	4	late	dm_task_pre	n/a	n/a	n/a	n/a	n/a
96.0	1.03132768000069	4	late	dm_task	1.03132768000069	n/a	-4.0	-1.0	n/a
97.03132768000069	0.75	4	late	dm_task_post	n/a	n/a	n/a	n/a	n/a
101.5	0.5	4	late	em_task_pre	n/a	n/a	n/a	n/a	n/a
102.0	1.5959436529992992	4	late	em_task	n/a	n/a	n/a	n/a	80.9998893781459
103.5959436529993	0.75	4	late	em_task_post	n/a	n/a	n/a	n/a	n/a
112.0	1.5	5	late	stimulus	n/a	172.5	n/a	n/a	n/a
123.5	0.5	5	late	dm_task_pre	n/a	n/a	n/a	n/a	n/a
124.0	0.652373868000723	5	late	dm_task	0.652373868000723	n/a	-4.0	-1.0	n/a
124.65237386800072	0.75	5	late	dm_task_post	n/a	n/a	n/a	n/a	n/a
129.5	0.5	5	late	em_task_pre	n/a	n/a	n/a	n/a	n/a
130.0	2.1992942050001005	5	late	em_task	n/a	n/a	n/a	n/a	173.523722594853
132.19929420500011	0.75	5	late	em_task_post	n/a	n/a	n/a	n/a	n/a
140.0	1.5	6	late	stimulus	n/a	127.5	n/a	n/a	n/a
151.5	0.5	6	late	dm_task_pre	n/a	n/a	n/a	n/a	n/a
152.0	0.860443100998964	6	late	dm_task	0.860443100998964	n/a	0.0	-1.0	n/a
152.86044310099896	0.75	6	late	dm_task_post	n/a	n/a	n/a	n/a	n/a
157.5	0.5	6	late	em_task_pre	n/a	n/a	n/a	n/a	n/a
158.0	2.6421960770002997	6	late	em_task	n/a	n/a	n/a	n/a	115.324346590322
160.6421960770003	0.75	6	late	em_task_post	n/a	n/a	n/a	n/a	n/a
168.0	1.5	7	early	stimulus	n/a	157.5	n/a	n/a	n/a
173.5	0.5	7	early	dm_task_pre	n/a	n/a	n/a	n/a	n/a
174.0	0.61380036599985	7	early	dm_task	0.61380036599985	n/a	21.0	-1.0	n/a
174.61380036599985	0.75	7	early	dm_task_post	n/a	n/a	n/a	n/a	n/a
185.5	0.5	7	early	em_task_pre	n/a	n/a	n/a	n/a	n/a
186.0	3.5435064890006984	7	early	em_task	n/a	n/a	n/a	n/a	165.529627343278
189.5435064890007	0.75	7	early	em_task_post	n/a	n/a	n/a	n/a	n/a
196.0	1.5	8	late	stimulus	n/a	120.0	n/a	n/a	n/a
207.5	0.5	8	late	dm_task_pre	n/a	n/a	n/a	n/a	n/a
208.0	0.798619634999341	8	late	dm_task	0.798619634999341	n/a	-4.0	-1.0	n/a
208.79861963499934	0.75	8	late	dm_task_post	n/a	n/a	n/a	n/a	n/a
213.5	0.5	8	late	em_task_pre	n/a	n/a	n/a	n/a	n/a
214.0	3.1949588520000987	8	late	em_task	n/a	n/a	n/a	n/a	112.178931199171
217.1949588520001	0.75	8	late	em_task_post	n/a	n/a	n/a	n/a	n/a
224.0	1.5	9	late	stimulus	n/a	75.0	n/a	n/a	n/a
235.5	0.5	9	late	dm_task_pre	n/a	n/a	n/a	n/a	n/a
236.0	0.669229209999685	9	late	dm_task	0.669229209999685	n/a	4.0	-1.0	n/a
236.66922920999968	0.75	9	late	dm_task_post	n/a	n/a	n/a	n/a	n/a
241.5	0.5	9	late	em_task_pre	n/a	n/a	n/a	n/a	n/a
242.0	3.332989344999099	9	late	em_task	n/a	n/a	n/a	n/a	58.1826709000849
245.3329893449991	0.75	9	late	em_task_post	n/a	n/a	n/a	n/a	n/a
252.0	1.5	10	early	stimulus	n/a	105.0	n/a	n/a	n/a
257.5	0.5	10	early	dm_task_pre	n/a	n/a	n/a	n/a	n/a
258.0	0.709624258999611	10	early	dm_task	0.709624258999611	n/a	-21.0	1.0	n/a
258.7096242589996	0.75	10	early	dm_task_post	n/a	n/a	n/a	n/a	n/a
269.5	0.5	10	early	em_task_pre	n/a	n/a	n/a	n/a	n/a
270.0	1.8200177429989992	10	early	em_task	n/a	n/a	n/a	n/a	99.5252822871865
271.82001774299897	0.75	10	early	em_task_post	n/a	n/a	n/a	n/a	n/a
280.0	1.5	11	late	stimulus	n/a	97.5	n/a	n/a	n/a
291.5	0.5	11	late	dm_task_pre	n/a	n/a	n/a	n/a	n/a
292.0	0.81098857500001	11	late	dm_task	0.81098857500001	n/a	21.0	-1.0	n/a
292.810988575	0.75	11	late	dm_task_post	n/a	n/a	n/a	n/a	n/a
297.5	0.5	11	late	em_task_pre	n/a	n/a	n/a	n/a	n/a
298.0	1.8266157380002994	11	late	em_task	n/a	n/a	n/a	n/a	97.8548316010964
299.8266157380003	0.75	11	late	em_task_post	n/a	n/a	n/a	n/a	n/a
308.0	1.5	12	early	stimulus	n/a	22.5	n/a	n/a	n/a
313.5	0.5	12	early	dm_task_pre	n/a	n/a	n/a	n/a	n/a
314.0	0.86969282499922	12	early	dm_task	0.86969282499922	n/a	0.0	-1.0	n/a
314.8696928249992	0.75	12	early	dm_task_post	n/a	n/a	n/a	n/a	n/a
325.5	0.5	12	early	em_task_pre	n/a	n/a	n/a	n/a	n/a
326.0	1.8958778989999985	12	early	em_task	n/a	n/a	n/a	n/a	25.4573876857997
327.89587789899997	0.75	12	early	em_task_post	n/a	n/a	n/a	n/a	n/a
