onset	duration	trial	trial_type	event_type	response_time	value_stimulus	value_reference	response_decision	response_estimation
0.0	1.5	1	early	stimulus	n/a	135.0	n/a	n/a	n/a
5.5	0.5	1	early	dm_task_pre	n/a	n/a	n/a	n/a	n/a
6.0	1.12480712600518	1	early	dm_task	1.12480712600518	n/a	4.0	-1.0	n/a
7.12480712600518	0.75	1	early	dm_task_post	n/a	n/a	n/a	n/a	n/a
17.5	0.5	1	early	em_task_pre	n/a	n/a	n/a	n/a	n/a
18.0	3.195538647996699	1	early	em_task	n/a	n/a	n/a	n/a	140.626042094161
21.1955386479967	0.75	1	early	em_task_post	n/a	n/a	n/a	n/a	n/a
28.0	1.5	2	early	stimulus	n/a	82.5	n/a	n/a	n/a
33.5	0.5	2	early	dm_task_pre	n/a	n/a	n/a	n/a	n/a
34.0	0.767743276010151	2	early	dm_task	0.767743276010151	n/a	0.0	-1.0	n/a
34.76774327601015	0.75	2	early	dm_task_post	n/a	n/a	n/a	n/a	n/a
45.5	0.5	2	early	em_task_pre	n/a	n/a	n/a	n/a	n/a
46.0	3.690213937996301	2	early	em_task	n/a	n/a	n/a	n/a	72.1513325596562
49.690213937996305	0.75	2	early	em_task_post	n/a	n/a	n/a	n/a	n/a
56.0	1.5	3	late	stimulus	n/a	52.5	n/a	n/a	n/a
67.5	0.5	3	late	dm_task_pre	n/a	n/a	n/a	n/a	n/a
68.0	0.912291020998964	3	late	dm_task	0.912291020998964	n/a	-4.0	1.0	n/a
68.91229102099896	0.75	3	late	dm_task_post	n/a	n/a	n/a	n/a	n/a
73.5	0.5	3	late	em_task_pre	n/a	n/a	n/a	n/a	n/a
74.0	2.8646951670089003	3	late	em_task	n/a	n/a	n/a	n/a	62.2453335995811
76.8646951670089	0.75	3	late	em_task_post	n/a	n/a	n/a	n/a	n/a
84.0	1.5	4	late	stimulus	n/a	90.0	n/a	n/a	n/a
95.5	0.5	4	late	dm_task_pre	n/a	n/a	n/a	n/a	n/a
96.0	0.587546641007066	4	late	dm_task	0.587546641007066	n/a	21.0	-1.0	n/a
96.58754664100707	0.75	4	late	dm_task_post	n/a	n/a	n/a	n/a	n/a
101.5	0.5	4	late	em_task_pre	n/a	n/a	n/a	n/a	n/a
102.0	3.4728559640062002	4	late	em_task	n/a	n/a	n/a	n/a	90.6405800844665
105.4728559640062	0.75	4	late	em_task_post	n/a	n/a	n/a	n/a	n/a
112.0	1.5	5	late	stimulus	n/a	97.5	n/a	n/a	n/a
123.5	0.5	5	late	dm_task_pre	n/a	n/a	n/a	n/a	n/a
124.0	0.663103074009996	5	late	dm_task	0.663103074009996	n/a	0.0	1.0	n/a
124.66310307401	0.75	5	late	dm_task_post	n/a	n/a	n/a	n/a	n/a
129.5	0.5	5	late	em_task_pre	n/a	n/a	n/a	n/a	n/a
130.0	2.9986683640018015	5	late	em_task	n/a	n/a	n/a	n/a	105.235069274337
132.9986683640018	0.75	5	late	em_task_post	n/a	n/a	n/a	n/a	n/a
140.0	1.5	6	early	stimulus	n/a	67.5	n/a	n/a	n/a
145.5	0.5	6	early	dm_task_pre	n/a	n/a	n/a	n/a	n/a
146.0	1.0543250030023	6	early	dm_task	1.0543250030023	n/a	0.0	1.0	n/a
147.0543250030023	0.75	6	early	dm_task_post	n/a	n/a	n/a	n/a	n/a
157.5	0.5	6	early	em_task_pre	n/a	n/a	n/a	n/a	n/a
158.0	2.4751355150073984	6	early	em_task	n/a	n/a	n/a	n/a	70.9466685144473
160.4751355150074	0.75	6	early	em_task_post	n/a	n/a	n/a	n/a	n/a
168.0	1.5	7	late	stimulus	n/a	7.5	n/a	n/a	n/a
179.5	0.5	7	late	dm_task_pre	n/a	n/a	n/a	n/a	n/a
180.0	0.865166739007691	7	late	dm_task	0.865166739007691	n/a	4.0	1.0	n/a
180.8651667390077	0.75	7	late	dm_task_post	n/a	n/a	n/a	n/a	n/a
185.5	0.5	7	late	em_task_pre	n/a	n/a	n/a	n/a	n/a
186.0	3.183997760002999	7	late	em_task	n/a	n/a	n/a	n/a	19.707520751865
189.183997760003	0.75	7	late	em_task_post	n/a	n/a	n/a	n/a	n/a
196.0	1.5	8	late	stimulus	n/a	0.0	n/a	n/a	n/a
207.5	0.5	8	late	dm_task_pre	n/a	n/a	n/a	n/a	n/a
208.0	0.93964231100108	8	late	dm_task	0.93964231100108	n/a	4.0	-1.0	n/a
208.93964231100108	0.75	8	late	dm_task_post	n/a	n/a	n/a	n/a	n/a
213.5	0.5	8	late	em_task_pre	n/a	n/a	n/a	n/a	n/a
214.0	1.7762785219965984	8	late	em_task	n/a	n/a	n/a	n/a	176.154449461655
215.7762785219966	0.75	8	late	em_task_post	n/a	n/a	n/a	n/a	n/a
224.0	1.5	9	early	stimulus	n/a	60.0	n/a	n/a	n/a
229.5	0.5	9	early	dm_task_pre	n/a	n/a	n/a	n/a	n/a
230.0	1.13347876300395	9	early	dm_task	1.13347876300395	n/a	-4.0	1.0	n/a
231.13347876300395	0.75	9	early	dm_task_post	n/a	n/a	n/a	n/a	n/a
241.5	0.5	9	early	em_task_pre	n/a	n/a	n/a	n/a	n/a
242.0	2.9354896660079	9	early	em_task	n/a	n/a	n/a	n/a	57.1954850721642
244.9354896660079	0.75	9	early	em_task_post	n/a	n/a	n/a	n/a	n/a
252.0	1.5	10	early	stimulus	n/a	37.5	n/a	n/a	n/a
257.5	0.5	10	early	dm_task_pre	n/a	n/a	n/a	n/a	n/a
258.0	1.32348037100746	10	early	dm_task	1.32348037100746	n/a	0.0	1.0	n/a
259.32348037100746	0.75	10	early	dm_task_post	n/a	n/a	n/a	n/a	n/a
269.5	0.5	10	early	em_task_pre	n/a	n/a	n/a	n/a	n/a
270.0	3.546032407000901	10	early	em_task	n/a	n/a	n/a	n/a	41.6087508591133
273.5460324070009	0.75	10	early	em_task_post	n/a	n/a	n/a	n/a	n/a
280.0	1.5	11	late	stimulus	n/a	120.0	n/a	n/a	n/a
291.5	0.5	11	late	dm_task_pre	n/a	n/a	n/a	n/a	n/a
292.0	1.0842453790101	11	late	dm_task	1.0842453790101	n/a	4.0	1.0	n/a
293.0842453790101	0.75	11	late	dm_task_post	n/a	n/a	n/a	n/a	n/a
297.5	0.5	11	late	em_task_pre	n/a	n/a	n/a	n/a	n/a
298.0	2.4714057840029007	11	late	em_task	n/a	n/a	n/a	n/a	125.796840695627
300.4714057840029	0.75	11	late	em_task_post	n/a	n/a	n/a	n/a	n/a
308.0	1.5	12	late	stimulus	n/a	45.0	n/a	n/a	n/a
319.5	0.5	12	late	dm_task_pre	n/a	n/a	n/a	n/a	n/a
320.0	0.74483039000188	12	late	dm_task	0.74483039000188	n/a	21.0	-1.0	n/a
320.7448303900019	0.75	12	late	dm_task_post	n/a	n/a	n/a	n/a	n/a
325.5	0.5	12	late	em_task_pre	n/a	n/a	n/a	n/a	n/a
326.0	3.8147468270035	12	late	em_task	n/a	n/a	n/a	n/a	53.3252212272089
329.8147468270035	0.75	12	late	em_task_post	n/a	n/a	n/a	n/a	n/a
