onset	duration	trial	trial_type	event_type	response_time	value_stimulus	value_reference	response_decision	response_estimation
0.0	1.5	1	early	stimulus	n/a	127.5	n/a	n/a	n/a
5.5	0.5	1	early	dm_task_pre	n/a	n/a	n/a	n/a	n/a
6.0	0.635466565028764	1	early	dm_task	0.635466565028764	n/a	21.0	-1.0	n/a
6.635466565028764	0.75	1	early	dm_task_post	n/a	n/a	n/a	n/a	n/a
17.5	0.5	1	early	em_task_pre	n/a	n/a	n/a	n/a	n/a
18.0	1.7421496839961002	1	early	em_task	n/a	n/a	n/a	n/a	127.026483152813
19.7421496839961	0.75	1	early	em_task_post	n/a	n/a	n/a	n/a	n/a
28.0	1.5	2	late	stimulus	n/a	135.0	n/a	n/a	n/a
39.5	0.5	2	late	dm_task_pre	n/a	n/a	n/a	n/a	n/a
40.0	0.910763655032497	2	late	dm_task	0.910763655032497	n/a	0.0	1.0	n/a
40.9107636550325	0.75	2	late	dm_task_post	n/a	n/a	n/a	n/a	n/a
45.5	0.5	2	late	em_task_pre	n/a	n/a	n/a	n/a	n/a
46.0	4.5	2	late	em_task	n/a	n/a	n/a	n/a	n/a
50.5	0.75	2	late	em_task_post	n/a	n/a	n/a	n/a	n/a
56.0	1.5	3	late	stimulus	n/a	172.5	n/a	n/a	n/a
67.5	0.5	3	late	dm_task_pre	n/a	n/a	n/a	n/a	n/a
68.0	0.767892447998747	3	late	dm_task	0.767892447998747	n/a	4.0	1.0	n/a
68.76789244799875	0.75	3	late	dm_task_post	n/a	n/a	n/a	n/a	n/a
73.5	0.5	3	late	em_task_pre	n/a	n/a	n/a	n/a	n/a
74.0	2.0198299040202983	3	late	em_task	n/a	n/a	n/a	n/a	170.181493614507
76.0198299040203	0.75	3	late	em_task_post	n/a	n/a	n/a	n/a	n/a
84.0	1.5	4	late	stimulus	n/a	82.5	n/a	n/a	n/a
95.5	0.5	4	late	dm_task_pre	n/a	n/a	n/a	n/a	n/a
96.0	0.655678757000715	4	late	dm_task	0.655678757000715	n/a	-4.0	-1.0	n/a
96.65567875700071	0.75	4	late	dm_task_post	n/a	n/a	n/a	n/a	n/a
101.5	0.5	4	late	em_task_pre	n/a	n/a	n/a	n/a	n/a
102.0	2.696249951026399	4	late	em_task	n/a	n/a	n/a	n/a	66.1685291581423
104.6962499510264	0.75	4	late	em_task_post	n/a	n/a	n/a	n/a	n/a
112.0	1.5	5	early	stimulus	n/a	157.5	n/a	n/a	n/a
117.5	0.5	5	early	dm_task_pre	n/a	n/a	n/a	n/a	n/a
118.0	0.596726403047796	5	early	dm_task	0.596726403047796	n/a	-21.0	1.0	n/a
118.5967264030478	0.75	5	early	dm_task_post	n/a	n/a	n/a	n/a	n/a
129.5	0.5	5	early	em_task_pre	n/a	n/a	n/a	n/a	n/a
130.0	2.4897238180274	5	early	em_task	n/a	n/a	n/a	n/a	161.351778340743
132.48972381802741	0.75	5	early	em_task_post	n/a	n/a	n/a	n/a	n/a
140.0	1.5	6	late	stimulus	n/a	7.5	n/a	n/a	n/a
151.5	0.5	6	late	dm_task_pre	n/a	n/a	n/a	n/a	n/a
152.0	0.545047337014694	6	late	dm_task	0.545047337014694	n/a	-4.0	1.0	n/a
152.5450473370147	0.75	6	late	dm_task_post	n/a	n/a	n/a	n/a	n/a
157.5	0.5	6	late	em_task_pre	n/a	n/a	n/a	n/a	n/a
158.0	3.2445288349991017	6	late	em_task	n/a	n/a	n/a	n/a	19.2729996599576
161.2445288349991	0.75	6	late	em_task_post	n/a	n/a	n/a	n/a	n/a
168.0	1.5	7	late	stimulus	n/a	45.0	n/a	n/a	n/a
179.5	0.5	7	late	dm_task_pre	n/a	n/a	n/a	n/a	n/a
180.0	0.71604174899403	7	late	dm_task	0.71604174899403	n/a	0.0	-1.0	n/a
180.71604174899403	0.75	7	late	dm_task_post	n/a	n/a	n/a	n/a	n/a
185.5	0.5	7	late	em_task_pre	n/a	n/a	n/a	n/a	n/a
186.0	2.3645500720013004	7	late	em_task	n/a	n/a	n/a	n/a	28.6234682007909
188.3645500720013	0.75	7	late	em_task_post	n/a	n/a	n/a	n/a	n/a
196.0	1.5	8	late	stimulus	n/a	112.5	n/a	n/a	n/a
207.5	0.5	8	late	dm_task_pre	n/a	n/a	n/a	n/a	n/a
208.0	0.585601469036192	8	late	dm_task	0.585601469036192	n/a	21.0	-1.0	n/a
208.5856014690362	0.75	8	late	dm_task_post	n/a	n/a	n/a	n/a	n/a
213.5	0.5	8	late	em_task_pre	n/a	n/a	n/a	n/a	n/a
214.0	3.1878002970479002	8	late	em_task	n/a	n/a	n/a	n/a	114.953150323313
217.1878002970479	0.75	8	late	em_task_post	n/a	n/a	n/a	n/a	n/a
224.0	1.5	9	early	stimulus	n/a	60.0	n/a	n/a	n/a
229.5	0.5	9	early	dm_task_pre	n/a	n/a	n/a	n/a	n/a
230.0	1.373986961029	9	early	dm_task	1.373986961029	n/a	0.0	-1.0	n/a
231.373986961029	0.75	9	early	dm_task_post	n/a	n/a	n/a	n/a	n/a
241.5	0.5	9	early	em_task_pre	n/a	n/a	n/a	n/a	n/a
242.0	3.4603762690094015	9	early	em_task	n/a	n/a	n/a	n/a	57.1890097746756
245.4603762690094	0.75	9	early	em_task_post	n/a	n/a	n/a	n/a	n/a
252.0	1.5	10	late	stimulus	n/a	105.0	n/a	n/a	n/a
263.5	0.5	10	late	dm_task_pre	n/a	n/a	n/a	n/a	n/a
264.0	0.532146311015822	10	late	dm_task	0.532146311015822	n/a	-21.0	1.0	n/a
264.5321463110158	0.75	10	late	dm_task_post	n/a	n/a	n/a	n/a	n/a
269.5	0.5	10	late	em_task_pre	n/a	n/a	n/a	n/a	n/a
270.0	2.1845496360329015	10	late	em_task	n/a	n/a	n/a	n/a	111.248367005286
272.1845496360329	0.75	10	late	em_task_post	n/a	n/a	n/a	n/a	n/a
280.0	1.5	11	late	stimulus	n/a	90.0	n/a	n/a	n/a
291.5	0.5	11	late	dm_task_pre	n/a	n/a	n/a	n/a	n/a
292.0	0.653609889035579	11	late	dm_task	0.653609889035579	n/a	-21.0	1.0	n/a
292.6536098890356	0.75	11	late	dm_task_post	n/a	n/a	n/a	n/a	n/a
297.5	0.5	11	late	em_task_pre	n/a	n/a	n/a	n/a	n/a
298.0	3.062859409023101	11	late	em_task	n/a	n/a	n/a	n/a	83.5102963665014
301.0628594090231	0.75	11	late	em_task_post	n/a	n/a	n/a	n/a	n/a
308.0	1.5	12	late	stimulus	n/a	120.0	n/a	n/a	n/a
319.5	0.5	12	late	dm_task_pre	n/a	n/a	n/a	n/a	n/a
320.0	0.566182893991936	12	late	dm_task	0.566182893991936	n/a	-21.0	1.0	n/a
320.56618289399194	0.75	12	late	dm_task_post	n/a	n/a	n/a	n/a	n/a
325.5	0.5	12	late	em_task_pre	n/a	n/a	n/a	n/a	n/a
326.0	1.9818042190163006	12	late	em_task	n/a	n/a	n/a	n/a	127.991889978249
327.9818042190163	0.75	12	late	em_task_post	n/a	n/a	n/a	n/a	n/a
