onset	duration	trial	trial_type	event_type	response_time	value_stimulus	value_reference	response_decision	response_estimation
0.0	1.5	1	early	stimulus	n/a	45.0	n/a	n/a	n/a
5.5	0.5	1	early	dm_task_pre	n/a	n/a	n/a	n/a	n/a
6.0	0.651875892988755	1	early	dm_task	0.651875892988755	n/a	21.0	-1.0	n/a
6.651875892988755	0.75	1	early	dm_task_post	n/a	n/a	n/a	n/a	n/a
17.5	0.5	1	early	em_task_pre	n/a	n/a	n/a	n/a	n/a
18.0	1.7125576719991003	1	early	em_task	n/a	n/a	n/a	n/a	40.3410665031339
19.7125576719991	0.75	1	early	em_task_post	n/a	n/a	n/a	n/a	n/a
28.0	1.5	2	early	stimulus	n/a	172.5	n/a	n/a	n/a
33.5	0.5	2	early	dm_task_pre	n/a	n/a	n/a	n/a	n/a
34.0	0.656477810000069	2	early	dm_task	0.656477810000069	n/a	0.0	-1.0	n/a
34.65647781000007	0.75	2	early	dm_task_post	n/a	n/a	n/a	n/a	n/a
45.5	0.5	2	early	em_task_pre	n/a	n/a	n/a	n/a	n/a
46.0	3.0994392189895983	2	early	em_task	n/a	n/a	n/a	n/a	154.290844072317
49.0994392189896	0.75	2	early	em_task_post	n/a	n/a	n/a	n/a	n/a
56.0	1.5	3	early	stimulus	n/a	37.5	n/a	n/a	n/a
61.5	0.5	3	early	dm_task_pre	n/a	n/a	n/a	n/a	n/a
62.0	0.582100995001383	3	early	dm_task	0.582100995001383	n/a	-4.0	1.0	n/a
62.58210099500138	0.75	3	early	dm_task_post	n/a	n/a	n/a	n/a	n/a
73.5	0.5	3	early	em_task_pre	n/a	n/a	n/a	n/a	n/a
74.0	1.9212431459890986	3	early	em_task	n/a	n/a	n/a	n/a	48.3696563099274
75.9212431459891	0.75	3	early	em_task_post	n/a	n/a	n/a	n/a	n/a
84.0	1.5	4	late	stimulus	n/a	127.5	n/a	n/a	n/a
95.5	0.5	4	late	dm_task_pre	n/a	n/a	n/a	n/a	n/a
96.0	0.928674108989071	4	late	dm_task	0.928674108989071	n/a	-21.0	1.0	n/a
96.92867410898907	0.75	4	late	dm_task_post	n/a	n/a	n/a	n/a	n/a
101.5	0.5	4	late	em_task_pre	n/a	n/a	n/a	n/a	n/a
102.0	2.7173248559993013	4	late	em_task	n/a	n/a	n/a	n/a	123.731037074313
104.7173248559993	0.75	4	late	em_task_post	n/a	n/a	n/a	n/a	n/a
112.0	1.5	5	early	stimulus	n/a	22.5	n/a	n/a	n/a
117.5	0.5	5	early	dm_task_pre	n/a	n/a	n/a	n/a	n/a
118.0	0.740832769995905	5	early	dm_task	0.740832769995905	n/a	0.0	-1.0	n/a
118.7408327699959	0.75	5	early	dm_task_post	n/a	n/a	n/a	n/a	n/a
129.5	0.5	5	early	em_task_pre	n/a	n/a	n/a	n/a	n/a
130.0	3.0955952169898	5	early	em_task	n/a	n/a	n/a	n/a	14.8318458827215
133.0955952169898	0.75	5	early	em_task_post	n/a	n/a	n/a	n/a	n/a
140.0	1.5	6	late	stimulus	n/a	105.0	n/a	n/a	n/a
151.5	0.5	6	late	dm_task_pre	n/a	n/a	n/a	n/a	n/a
152.0	1.24152371399396	6	late	dm_task	1.24152371399396	n/a	0.0	1.0	n/a
153.24152371399396	0.75	6	late	dm_task_post	n/a	n/a	n/a	n/a	n/a
157.5	0.5	6	late	em_task_pre	n/a	n/a	n/a	n/a	n/a
158.0	3.9163884570007	6	late	em_task	n/a	n/a	n/a	n/a	107.448673321175
161.9163884570007	0.75	6	late	em_task_post	n/a	n/a	n/a	n/a	n/a
168.0	1.5	7	early	stimulus	n/a	52.5	n/a	n/a	n/a
173.5	0.5	7	early	dm_task_pre	n/a	n/a	n/a	n/a	n/a
174.0	0.864675348988385	7	early	dm_task	0.864675348988385	n/a	21.0	-1.0	n/a
174.86467534898838	0.75	7	early	dm_task_post	n/a	n/a	n/a	n/a	n/a
185.5	0.5	7	early	em_task_pre	n/a	n/a	n/a	n/a	n/a
186.0	2.622351044992701	7	early	em_task	n/a	n/a	n/a	n/a	56.6992769703968
188.6223510449927	0.75	7	early	em_task_post	n/a	n/a	n/a	n/a	n/a
196.0	1.5	8	early	stimulus	n/a	135.0	n/a	n/a	n/a
201.5	0.5	8	early	dm_task_pre	n/a	n/a	n/a	n/a	n/a
202.0	1.31549399399955	8	early	dm_task	1.31549399399955	n/a	0.0	1.0	n/a
203.31549399399955	0.75	8	early	dm_task_post	n/a	n/a	n/a	n/a	n/a
213.5	0.5	8	early	em_task_pre	n/a	n/a	n/a	n/a	n/a
214.0	2.1928696199902014	8	early	em_task	n/a	n/a	n/a	n/a	150.330966383351
216.1928696199902	0.75	8	early	em_task_post	n/a	n/a	n/a	n/a	n/a
224.0	1.5	9	late	stimulus	n/a	150.0	n/a	n/a	n/a
235.5	0.5	9	late	dm_task_pre	n/a	n/a	n/a	n/a	n/a
236.0	1.05827482799941	9	late	dm_task	1.05827482799941	n/a	-4.0	1.0	n/a
237.0582748279994	0.75	9	late	dm_task_post	n/a	n/a	n/a	n/a	n/a
241.5	0.5	9	late	em_task_pre	n/a	n/a	n/a	n/a	n/a
242.0	2.8150753689988015	9	late	em_task	n/a	n/a	n/a	n/a	161.342187580218
244.8150753689988	0.75	9	late	em_task_post	n/a	n/a	n/a	n/a	n/a
252.0	1.5	10	late	stimulus	n/a	120.0	n/a	n/a	n/a
263.5	0.5	10	late	dm_task_pre	n/a	n/a	n/a	n/a	n/a
264.0	0.904131149000023	10	late	dm_task	0.904131149000023	n/a	-21.0	1.0	n/a
264.904131149	0.75	10	late	dm_task_post	n/a	n/a	n/a	n/a	n/a
269.5	0.5	10	late	em_task_pre	n/a	n/a	n/a	n/a	n/a
270.0	3.2198927299905016	10	late	em_task	n/a	n/a	n/a	n/a	132.841851705297
273.2198927299905	0.75	10	late	em_task_post	n/a	n/a	n/a	n/a	n/a
280.0	1.5	11	early	stimulus	n/a	60.0	n/a	n/a	n/a
285.5	0.5	11	early	dm_task_pre	n/a	n/a	n/a	n/a	n/a
286.0	1.19772158199339	11	early	dm_task	1.19772158199339	n/a	-4.0	1.0	n/a
287.1977215819934	0.75	11	early	dm_task_post	n/a	n/a	n/a	n/a	n/a
297.5	0.5	11	early	em_task_pre	n/a	n/a	n/a	n/a	n/a
298.0	2.9214702839962996	11	early	em_task	n/a	n/a	n/a	n/a	163.049673593906
300.9214702839963	0.75	11	early	em_task_post	n/a	n/a	n/a	n/a	n/a
308.0	1.5	12	early	stimulus	n/a	142.5	n/a	n/a	n/a
313.5	0.5	12	early	dm_task_pre	n/a	n/a	n/a	n/a	n/a
314.0	1.12945011998818	12	early	dm_task	1.12945011998818	n/a	21.0	-1.0	n/a
315.1294501199882	0.75	12	early	dm_task_post	n/a	n/a	n/a	n/a	n/a
325.5	0.5	12	early	em_task_pre	n/a	n/a	n/a	n/a	n/a
326.0	2.6719003699981982	12	early	em_task	n/a	n/a	n/a	n/a	139.539892162611
328.6719003699982	0.75	12	early	em_task_post	n/a	n/a	n/a	n/a	n/a
