onset	duration	trial	trial_type	event_type	response_time	value_stimulus	value_reference	response_decision	response_estimation
0.0	1.5	1	early	stimulus	n/a	82.5	n/a	n/a	n/a
5.5	0.5	1	early	dm_task_pre	n/a	n/a	n/a	n/a	n/a
6.0	0.715289097002824	1	early	dm_task	0.715289097002824	n/a	-21.0	1.0	n/a
6.715289097002824	0.75	1	early	dm_task_post	n/a	n/a	n/a	n/a	n/a
17.5	0.5	1	early	em_task_pre	n/a	n/a	n/a	n/a	n/a
18.0	2.2440145510045006	1	early	em_task	n/a	n/a	n/a	n/a	76.5496948431551
20.2440145510045	0.75	1	early	em_task_post	n/a	n/a	n/a	n/a	n/a
28.0	1.5	2	late	stimulus	n/a	67.5	n/a	n/a	n/a
39.5	0.5	2	late	dm_task_pre	n/a	n/a	n/a	n/a	n/a
40.0	0.753511385992169	2	late	dm_task	0.753511385992169	n/a	-21.0	1.0	n/a
40.75351138599217	0.75	2	late	dm_task_post	n/a	n/a	n/a	n/a	n/a
45.5	0.5	2	late	em_task_pre	n/a	n/a	n/a	n/a	n/a
46.0	3.0508096459961997	2	late	em_task	n/a	n/a	n/a	n/a	64.900809741612
49.050809645996196	0.75	2	late	em_task_post	n/a	n/a	n/a	n/a	n/a
56.0	1.5	3	late	stimulus	n/a	15.0	n/a	n/a	n/a
67.5	0.5	3	late	dm_task_pre	n/a	n/a	n/a	n/a	n/a
68.0	0.560090530998423	3	late	dm_task	0.560090530998423	n/a	-4.0	1.0	n/a
68.56009053099842	0.75	3	late	dm_task_post	n/a	n/a	n/a	n/a	n/a
73.5	0.5	3	late	em_task_pre	n/a	n/a	n/a	n/a	n/a
74.0	3.0574036449980007	3	late	em_task	n/a	n/a	n/a	n/a	27.8557442755464
77.057403644998	0.75	3	late	em_task_post	n/a	n/a	n/a	n/a	n/a
84.0	1.5	4	late	stimulus	n/a	22.5	n/a	n/a	n/a
95.5	0.5	4	late	dm_task_pre	n/a	n/a	n/a	n/a	n/a
96.0	0.966643952997401	4	late	dm_task	0.966643952997401	n/a	4.0	1.0	n/a
96.9666439529974	0.75	4	late	dm_task_post	n/a	n/a	n/a	n/a	n/a
101.5	0.5	4	late	em_task_pre	n/a	n/a	n/a	n/a	n/a
102.0	3.4803104739985002	4	late	em_task	n/a	n/a	n/a	n/a	31.7774379598189
105.4803104739985	0.75	4	late	em_task_post	n/a	n/a	n/a	n/a	n/a
112.0	1.5	5	late	stimulus	n/a	172.5	n/a	n/a	n/a
123.5	0.5	5	late	dm_task_pre	n/a	n/a	n/a	n/a	n/a
124.0	0.756765095997253	5	late	dm_task	0.756765095997253	n/a	21.0	-1.0	n/a
124.75676509599725	0.75	5	late	dm_task_post	n/a	n/a	n/a	n/a	n/a
129.5	0.5	5	late	em_task_pre	n/a	n/a	n/a	n/a	n/a
130.0	3.9873970549961015	5	late	em_task	n/a	n/a	n/a	n/a	172.147804398625
133.9873970549961	0.75	5	late	em_task_post	n/a	n/a	n/a	n/a	n/a
140.0	1.5	6	early	stimulus	n/a	105.0	n/a	n/a	n/a
145.5	0.5	6	early	dm_task_pre	n/a	n/a	n/a	n/a	n/a
146.0	0.515055682000821	6	early	dm_task	0.515055682000821	n/a	21.0	-1.0	n/a
146.51505568200082	0.75	6	early	dm_task_post	n/a	n/a	n/a	n/a	n/a
157.5	0.5	6	early	em_task_pre	n/a	n/a	n/a	n/a	n/a
158.0	3.8267177840025006	6	early	em_task	n/a	n/a	n/a	n/a	121.977289751727
161.8267177840025	0.75	6	early	em_task_post	n/a	n/a	n/a	n/a	n/a
168.0	1.5	7	early	stimulus	n/a	37.5	n/a	n/a	n/a
173.5	0.5	7	early	dm_task_pre	n/a	n/a	n/a	n/a	n/a
174.0	1.42181885699392	7	early	dm_task	1.42181885699392	n/a	0.0	-1.0	n/a
175.42181885699392	0.75	7	early	dm_task_post	n/a	n/a	n/a	n/a	n/a
185.5	0.5	7	early	em_task_pre	n/a	n/a	n/a	n/a	n/a
186.0	3.616323802998501	7	early	em_task	n/a	n/a	n/a	n/a	38.445243264752
189.6163238029985	0.75	7	early	em_task_post	n/a	n/a	n/a	n/a	n/a
196.0	1.5	8	early	stimulus	n/a	165.0	n/a	n/a	n/a
201.5	0.5	8	early	dm_task_pre	n/a	n/a	n/a	n/a	n/a
202.0	1.07777435399476	8	early	dm_task	1.07777435399476	n/a	21.0	1.0	n/a
203.07777435399476	0.75	8	early	dm_task_post	n/a	n/a	n/a	n/a	n/a
213.5	0.5	8	early	em_task_pre	n/a	n/a	n/a	n/a	n/a
214.0	3.7052257769973984	8	early	em_task	n/a	n/a	n/a	n/a	151.187299047547
217.7052257769974	0.75	8	early	em_task_post	n/a	n/a	n/a	n/a	n/a
224.0	1.5	9	late	stimulus	n/a	150.0	n/a	n/a	n/a
235.5	0.5	9	late	dm_task_pre	n/a	n/a	n/a	n/a	n/a
236.0	0.515178670000751	9	late	dm_task	0.515178670000751	n/a	4.0	-1.0	n/a
236.51517867000075	0.75	9	late	dm_task_post	n/a	n/a	n/a	n/a	n/a
241.5	0.5	9	late	em_task_pre	n/a	n/a	n/a	n/a	n/a
242.0	3.030054928996801	9	late	em_task	n/a	n/a	n/a	n/a	141.113957033755
245.0300549289968	0.75	9	late	em_task_post	n/a	n/a	n/a	n/a	n/a
252.0	1.5	10	late	stimulus	n/a	120.0	n/a	n/a	n/a
263.5	0.5	10	late	dm_task_pre	n/a	n/a	n/a	n/a	n/a
264.0	0.67204549399321	10	late	dm_task	0.67204549399321	n/a	-4.0	1.0	n/a
264.6720454939932	0.75	10	late	dm_task_post	n/a	n/a	n/a	n/a	n/a
269.5	0.5	10	late	em_task_pre	n/a	n/a	n/a	n/a	n/a
270.0	3.419495951005999	10	late	em_task	n/a	n/a	n/a	n/a	130.505730518103
273.419495951006	0.75	10	late	em_task_post	n/a	n/a	n/a	n/a	n/a
280.0	1.5	11	early	stimulus	n/a	157.5	n/a	n/a	n/a
285.5	0.5	11	early	dm_task_pre	n/a	n/a	n/a	n/a	n/a
286.0	0.596463541995035	11	early	dm_task	0.596463541995035	n/a	4.0	-1.0	n/a
286.59646354199504	0.75	11	early	dm_task_post	n/a	n/a	n/a	n/a	n/a
297.5	0.5	11	early	em_task_pre	n/a	n/a	n/a	n/a	n/a
298.0	3.3087726350059015	11	early	em_task	n/a	n/a	n/a	n/a	125.924170615429
301.3087726350059	0.75	11	early	em_task_post	n/a	n/a	n/a	n/a	n/a
308.0	1.5	12	early	stimulus	n/a	45.0	n/a	n/a	n/a
313.5	0.5	12	early	dm_task_pre	n/a	n/a	n/a	n/a	n/a
314.0	1.23688234300062	12	early	dm_task	1.23688234300062	n/a	0.0	-1.0	n/a
315.2368823430006	0.75	12	early	dm_task_post	n/a	n/a	n/a	n/a	n/a
325.5	0.5	12	early	em_task_pre	n/a	n/a	n/a	n/a	n/a
326.0	3.4653681839991	12	early	em_task	n/a	n/a	n/a	n/a	54.0481684047365
329.4653681839991	0.75	12	early	em_task_post	n/a	n/a	n/a	n/a	n/a
