onset	duration	trial	trial_type	event_type	response_time	value_stimulus	value_reference	response_decision	response_estimation
0.0	1.5	1	early	stimulus	n/a	52.5	n/a	n/a	n/a
5.5	0.5	1	early	dm_task_pre	n/a	n/a	n/a	n/a	n/a
6.0	0.589363639000112	1	early	dm_task	0.589363639000112	n/a	21.0	-1.0	n/a
6.589363639000112	0.75	1	early	dm_task_post	n/a	n/a	n/a	n/a	n/a
17.5	0.5	1	early	em_task_pre	n/a	n/a	n/a	n/a	n/a
18.0	1.6005814399999991	1	early	em_task	n/a	n/a	n/a	n/a	55.2312348974947
19.60058144	0.75	1	early	em_task_post	n/a	n/a	n/a	n/a	n/a
28.0	1.5	2	late	stimulus	n/a	172.5	n/a	n/a	n/a
39.5	0.5	2	late	dm_task_pre	n/a	n/a	n/a	n/a	n/a
40.0	0.578658076000011	2	late	dm_task	0.578658076000011	n/a	-21.0	1.0	n/a
40.57865807600001	0.75	2	late	dm_task_post	n/a	n/a	n/a	n/a	n/a
45.5	0.5	2	late	em_task_pre	n/a	n/a	n/a	n/a	n/a
46.0	3.3075459260003015	2	late	em_task	n/a	n/a	n/a	n/a	168.34140005186
49.3075459260003	0.75	2	late	em_task_post	n/a	n/a	n/a	n/a	n/a
56.0	1.5	3	late	stimulus	n/a	0.0	n/a	n/a	n/a
67.5	0.5	3	late	dm_task_pre	n/a	n/a	n/a	n/a	n/a
68.0	0.903094862000216	3	late	dm_task	0.903094862000216	n/a	-4.0	-1.0	n/a
68.90309486200022	0.75	3	late	dm_task_post	n/a	n/a	n/a	n/a	n/a
73.5	0.5	3	late	em_task_pre	n/a	n/a	n/a	n/a	n/a
74.0	3.232747223999901	3	late	em_task	n/a	n/a	n/a	n/a	169.477939955526
77.2327472239999	0.75	3	late	em_task_post	n/a	n/a	n/a	n/a	n/a
84.0	1.5	4	early	stimulus	n/a	150.0	n/a	n/a	n/a
89.5	0.5	4	early	dm_task_pre	n/a	n/a	n/a	n/a	n/a
90.0	1.26280045300018	4	early	dm_task	1.26280045300018	n/a	4.0	-1.0	n/a
91.26280045300018	0.75	4	early	dm_task_post	n/a	n/a	n/a	n/a	n/a
101.5	0.5	4	early	em_task_pre	n/a	n/a	n/a	n/a	n/a
102.0	1.3410200669999988	4	early	em_task	n/a	n/a	n/a	n/a	152.638931093867
103.341020067	0.75	4	early	em_task_post	n/a	n/a	n/a	n/a	n/a
112.0	1.5	5	late	stimulus	n/a	112.5	n/a	n/a	n/a
123.5	0.5	5	late	dm_task_pre	n/a	n/a	n/a	n/a	n/a
124.0	0.735832791000121	5	late	dm_task	0.735832791000121	n/a	-21.0	1.0	n/a
124.73583279100012	0.75	5	late	dm_task_post	n/a	n/a	n/a	n/a	n/a
129.5	0.5	5	late	em_task_pre	n/a	n/a	n/a	n/a	n/a
130.0	2.9988481030000003	5	late	em_task	n/a	n/a	n/a	n/a	98.3996338110821
132.998848103	0.75	5	late	em_task_post	n/a	n/a	n/a	n/a	n/a
140.0	1.5	6	early	stimulus	n/a	30.0	n/a	n/a	n/a
145.5	0.5	6	early	dm_task_pre	n/a	n/a	n/a	n/a	n/a
146.0	0.712546811000266	6	early	dm_task	0.712546811000266	n/a	0.0	1.0	n/a
146.71254681100027	0.75	6	early	dm_task_post	n/a	n/a	n/a	n/a	n/a
157.5	0.5	6	early	em_task_pre	n/a	n/a	n/a	n/a	n/a
158.0	2.3566740260002987	6	early	em_task	n/a	n/a	n/a	n/a	32.3503206855544
160.3566740260003	0.75	6	early	em_task_post	n/a	n/a	n/a	n/a	n/a
168.0	1.5	7	early	stimulus	n/a	60.0	n/a	n/a	n/a
173.5	0.5	7	early	dm_task_pre	n/a	n/a	n/a	n/a	n/a
174.0	0.686982482000076	7	early	dm_task	0.686982482000076	n/a	0.0	1.0	n/a
174.68698248200008	0.75	7	early	dm_task_post	n/a	n/a	n/a	n/a	n/a
185.5	0.5	7	early	em_task_pre	n/a	n/a	n/a	n/a	n/a
186.0	1.3815643679999994	7	early	em_task	n/a	n/a	n/a	n/a	72.8550759411091
187.381564368	0.75	7	early	em_task_post	n/a	n/a	n/a	n/a	n/a
196.0	1.5	8	early	stimulus	n/a	142.5	n/a	n/a	n/a
201.5	0.5	8	early	dm_task_pre	n/a	n/a	n/a	n/a	n/a
202.0	1.21136750799997	8	early	dm_task	1.21136750799997	n/a	4.0	1.0	n/a
203.21136750799997	0.75	8	early	dm_task_post	n/a	n/a	n/a	n/a	n/a
213.5	0.5	8	early	em_task_pre	n/a	n/a	n/a	n/a	n/a
214.0	2.8226023970001	8	early	em_task	n/a	n/a	n/a	n/a	142.927991290968
216.8226023970001	0.75	8	early	em_task_post	n/a	n/a	n/a	n/a	n/a
224.0	1.5	9	late	stimulus	n/a	105.0	n/a	n/a	n/a
235.5	0.5	9	late	dm_task_pre	n/a	n/a	n/a	n/a	n/a
236.0	0.934076211000047	9	late	dm_task	0.934076211000047	n/a	4.0	-1.0	n/a
236.93407621100005	0.75	9	late	dm_task_post	n/a	n/a	n/a	n/a	n/a
241.5	0.5	9	late	em_task_pre	n/a	n/a	n/a	n/a	n/a
242.0	2.862044371000099	9	late	em_task	n/a	n/a	n/a	n/a	101.246216578688
244.8620443710001	0.75	9	late	em_task_post	n/a	n/a	n/a	n/a	n/a
252.0	1.5	10	late	stimulus	n/a	157.5	n/a	n/a	n/a
263.5	0.5	10	late	dm_task_pre	n/a	n/a	n/a	n/a	n/a
264.0	1.04190627600019	10	late	dm_task	1.04190627600019	n/a	4.0	-1.0	n/a
265.0419062760002	0.75	10	late	dm_task_post	n/a	n/a	n/a	n/a	n/a
269.5	0.5	10	late	em_task_pre	n/a	n/a	n/a	n/a	n/a
270.0	2.6215416190003005	10	late	em_task	n/a	n/a	n/a	n/a	154.601856061593
272.6215416190003	0.75	10	late	em_task_post	n/a	n/a	n/a	n/a	n/a
280.0	1.5	11	early	stimulus	n/a	75.0	n/a	n/a	n/a
285.5	0.5	11	early	dm_task_pre	n/a	n/a	n/a	n/a	n/a
286.0	1.38485492700011	11	early	dm_task	1.38485492700011	n/a	0.0	-1.0	n/a
287.3848549270001	0.75	11	early	dm_task_post	n/a	n/a	n/a	n/a	n/a
297.5	0.5	11	early	em_task_pre	n/a	n/a	n/a	n/a	n/a
298.0	2.3963165480000015	11	early	em_task	n/a	n/a	n/a	n/a	53.6482097864933
300.396316548	0.75	11	early	em_task_post	n/a	n/a	n/a	n/a	n/a
308.0	1.5	12	early	stimulus	n/a	165.0	n/a	n/a	n/a
313.5	0.5	12	early	dm_task_pre	n/a	n/a	n/a	n/a	n/a
314.0	0.843100296000102	12	early	dm_task	0.843100296000102	n/a	-4.0	1.0	n/a
314.8431002960001	0.75	12	early	dm_task_post	n/a	n/a	n/a	n/a	n/a
325.5	0.5	12	early	em_task_pre	n/a	n/a	n/a	n/a	n/a
326.0	3.170447489000299	12	early	em_task	n/a	n/a	n/a	n/a	163.560560899378
329.1704474890003	0.75	12	early	em_task_post	n/a	n/a	n/a	n/a	n/a
