onset	duration	trial	trial_type	event_type	response_time	value_stimulus	value_reference	response_decision	response_estimation
0.0	1.5	1	early	stimulus	n/a	45.0	n/a	n/a	n/a
5.5	0.5	1	early	dm_task_pre	n/a	n/a	n/a	n/a	n/a
6.0	0.726429119000159	1	early	dm_task	0.726429119000159	n/a	-21.0	1.0	n/a
6.726429119000159	0.75	1	early	dm_task_post	n/a	n/a	n/a	n/a	n/a
17.5	0.5	1	early	em_task_pre	n/a	n/a	n/a	n/a	n/a
18.0	2.6046322810000007	1	early	em_task	n/a	n/a	n/a	n/a	41.867865541409
20.604632281	0.75	1	early	em_task_post	n/a	n/a	n/a	n/a	n/a
28.0	1.5	2	late	stimulus	n/a	97.5	n/a	n/a	n/a
39.5	0.5	2	late	dm_task_pre	n/a	n/a	n/a	n/a	n/a
40.0	0.696602743000085	2	late	dm_task	0.696602743000085	n/a	21.0	-1.0	n/a
40.696602743000085	0.75	2	late	dm_task_post	n/a	n/a	n/a	n/a	n/a
45.5	0.5	2	late	em_task_pre	n/a	n/a	n/a	n/a	n/a
46.0	1.7765486459999984	2	late	em_task	n/a	n/a	n/a	n/a	103.88592614608
47.776548645999995	0.75	2	late	em_task_post	n/a	n/a	n/a	n/a	n/a
56.0	1.5	3	early	stimulus	n/a	30.0	n/a	n/a	n/a
61.5	0.5	3	early	dm_task_pre	n/a	n/a	n/a	n/a	n/a
62.0	1.05348036700002	3	early	dm_task	1.05348036700002	n/a	-4.0	1.0	n/a
63.05348036700002	0.75	3	early	dm_task_post	n/a	n/a	n/a	n/a	n/a
73.5	0.5	3	early	em_task_pre	n/a	n/a	n/a	n/a	n/a
74.0	1.7503014060001014	3	early	em_task	n/a	n/a	n/a	n/a	30.0943292986085
75.7503014060001	0.75	3	early	em_task_post	n/a	n/a	n/a	n/a	n/a
84.0	1.5	4	late	stimulus	n/a	15.0	n/a	n/a	n/a
95.5	0.5	4	late	dm_task_pre	n/a	n/a	n/a	n/a	n/a
96.0	1.1599506340001	4	late	dm_task	1.1599506340001	n/a	21.0	1.0	n/a
97.1599506340001	0.75	4	late	dm_task_post	n/a	n/a	n/a	n/a	n/a
101.5	0.5	4	late	em_task_pre	n/a	n/a	n/a	n/a	n/a
102.0	3.6729977100001	4	late	em_task	n/a	n/a	n/a	n/a	38.6932523212557
105.6729977100001	0.75	4	late	em_task_post	n/a	n/a	n/a	n/a	n/a
112.0	1.5	5	late	stimulus	n/a	90.0	n/a	n/a	n/a
123.5	0.5	5	late	dm_task_pre	n/a	n/a	n/a	n/a	n/a
124.0	0.565185079999992	5	late	dm_task	0.565185079999992	n/a	4.0	-1.0	n/a
124.56518507999999	0.75	5	late	dm_task_post	n/a	n/a	n/a	n/a	n/a
129.5	0.5	5	late	em_task_pre	n/a	n/a	n/a	n/a	n/a
130.0	2.7641050810000003	5	late	em_task	n/a	n/a	n/a	n/a	79.9900407663098
132.764105081	0.75	5	late	em_task_post	n/a	n/a	n/a	n/a	n/a
140.0	1.5	6	late	stimulus	n/a	75.0	n/a	n/a	n/a
151.5	0.5	6	late	dm_task_pre	n/a	n/a	n/a	n/a	n/a
152.0	0.823421099000143	6	late	dm_task	0.823421099000143	n/a	-21.0	1.0	n/a
152.82342109900014	0.75	6	late	dm_task_post	n/a	n/a	n/a	n/a	n/a
157.5	0.5	6	late	em_task_pre	n/a	n/a	n/a	n/a	n/a
158.0	3.3690261310001013	6	late	em_task	n/a	n/a	n/a	n/a	64.0080415309388
161.3690261310001	0.75	6	late	em_task_post	n/a	n/a	n/a	n/a	n/a
168.0	1.5	7	early	stimulus	n/a	157.5	n/a	n/a	n/a
173.5	0.5	7	early	dm_task_pre	n/a	n/a	n/a	n/a	n/a
174.0	0.847489752999991	7	early	dm_task	0.847489752999991	n/a	-4.0	-1.0	n/a
174.847489753	0.75	7	early	dm_task_post	n/a	n/a	n/a	n/a	n/a
185.5	0.5	7	early	em_task_pre	n/a	n/a	n/a	n/a	n/a
186.0	1.7601994700000994	7	early	em_task	n/a	n/a	n/a	n/a	155.015114837297
187.7601994700001	0.75	7	early	em_task_post	n/a	n/a	n/a	n/a	n/a
196.0	1.5	8	late	stimulus	n/a	112.5	n/a	n/a	n/a
207.5	0.5	8	late	dm_task_pre	n/a	n/a	n/a	n/a	n/a
208.0	0.552855090000321	8	late	dm_task	0.552855090000321	n/a	21.0	-1.0	n/a
208.55285509000032	0.75	8	late	dm_task_post	n/a	n/a	n/a	n/a	n/a
213.5	0.5	8	late	em_task_pre	n/a	n/a	n/a	n/a	n/a
214.0	2.765322314999999	8	late	em_task	n/a	n/a	n/a	n/a	104.926857249517
216.765322315	0.75	8	late	em_task_post	n/a	n/a	n/a	n/a	n/a
224.0	1.5	9	early	stimulus	n/a	127.5	n/a	n/a	n/a
229.5	0.5	9	early	dm_task_pre	n/a	n/a	n/a	n/a	n/a
230.0	0.928269179999916	9	early	dm_task	0.928269179999916	n/a	0.0	-1.0	n/a
230.92826917999992	0.75	9	early	dm_task_post	n/a	n/a	n/a	n/a	n/a
241.5	0.5	9	early	em_task_pre	n/a	n/a	n/a	n/a	n/a
242.0	2.23916788	9	early	em_task	n/a	n/a	n/a	n/a	121.953485655623
244.23916788	0.75	9	early	em_task_post	n/a	n/a	n/a	n/a	n/a
252.0	1.5	10	early	stimulus	n/a	142.5	n/a	n/a	n/a
257.5	0.5	10	early	dm_task_pre	n/a	n/a	n/a	n/a	n/a
258.0	1.31897473400022	10	early	dm_task	1.31897473400022	n/a	-4.0	1.0	n/a
259.3189747340002	0.75	10	early	dm_task_post	n/a	n/a	n/a	n/a	n/a
269.5	0.5	10	early	em_task_pre	n/a	n/a	n/a	n/a	n/a
270.0	2.163295748000099	10	early	em_task	n/a	n/a	n/a	n/a	146.835222771055
272.1632957480001	0.75	10	early	em_task_post	n/a	n/a	n/a	n/a	n/a
280.0	1.5	11	late	stimulus	n/a	37.5	n/a	n/a	n/a
291.5	0.5	11	late	dm_task_pre	n/a	n/a	n/a	n/a	n/a
292.0	0.805154767000204	11	late	dm_task	0.805154767000204	n/a	21.0	-1.0	n/a
292.8051547670002	0.75	11	late	dm_task_post	n/a	n/a	n/a	n/a	n/a
297.5	0.5	11	late	em_task_pre	n/a	n/a	n/a	n/a	n/a
298.0	2.2528192909998985	11	late	em_task	n/a	n/a	n/a	n/a	38.3644962780694
300.2528192909999	0.75	11	late	em_task_post	n/a	n/a	n/a	n/a	n/a
308.0	1.5	12	late	stimulus	n/a	172.5	n/a	n/a	n/a
319.5	0.5	12	late	dm_task_pre	n/a	n/a	n/a	n/a	n/a
320.0	0.796187158000066	12	late	dm_task	0.796187158000066	n/a	21.0	-1.0	n/a
320.79618715800007	0.75	12	late	dm_task_post	n/a	n/a	n/a	n/a	n/a
325.5	0.5	12	late	em_task_pre	n/a	n/a	n/a	n/a	n/a
326.0	3.4925053709999005	12	late	em_task	n/a	n/a	n/a	n/a	163.64202877101
329.4925053709999	0.75	12	late	em_task_post	n/a	n/a	n/a	n/a	n/a
