onset	duration	trial	trial_type	event_type	response_time	value_stimulus	value_reference	response_decision	response_estimation
0.0	1.5	1	early	stimulus	n/a	60.0	n/a	n/a	n/a
5.5	0.5	1	early	dm_task_pre	n/a	n/a	n/a	n/a	n/a
6.0	0.681357952998951	1	early	dm_task	0.681357952998951	n/a	-4.0	1.0	n/a
6.681357952998951	0.75	1	early	dm_task_post	n/a	n/a	n/a	n/a	n/a
17.5	0.5	1	early	em_task_pre	n/a	n/a	n/a	n/a	n/a
18.0	1.6131626081186994	1	early	em_task	n/a	n/a	n/a	n/a	72.805365541409
19.6131626081187	0.75	1	early	em_task_post	n/a	n/a	n/a	n/a	n/a
28.0	1.5	2	early	stimulus	n/a	75.0	n/a	n/a	n/a
33.5	0.5	2	early	dm_task_pre	n/a	n/a	n/a	n/a	n/a
34.0	0.57165446691215	2	early	dm_task	0.57165446691215	n/a	21.0	-1.0	n/a
34.57165446691215	0.75	2	early	dm_task_post	n/a	n/a	n/a	n/a	n/a
45.5	0.5	2	early	em_task_pre	n/a	n/a	n/a	n/a	n/a
46.0	3.4648404009640004	2	early	em_task	n/a	n/a	n/a	n/a	77.8703011460803
49.464840400964	0.75	2	early	em_task_post	n/a	n/a	n/a	n/a	n/a
56.0	1.5	3	late	stimulus	n/a	22.5	n/a	n/a	n/a
67.5	0.5	3	late	dm_task_pre	n/a	n/a	n/a	n/a	n/a
68.0	0.691638249903917	3	late	dm_task	0.691638249903917	n/a	-4.0	1.0	n/a
68.69163824990392	0.75	3	late	dm_task_post	n/a	n/a	n/a	n/a	n/a
73.5	0.5	3	late	em_task_pre	n/a	n/a	n/a	n/a	n/a
74.0	1.8415553129743998	3	late	em_task	n/a	n/a	n/a	n/a	16.0318292986085
75.8415553129744	0.75	3	late	em_task_post	n/a	n/a	n/a	n/a	n/a
84.0	1.5	4	early	stimulus	n/a	52.5	n/a	n/a	n/a
89.5	0.5	4	early	dm_task_pre	n/a	n/a	n/a	n/a	n/a
90.0	0.701741971075535	4	early	dm_task	0.701741971075535	n/a	21.0	-1.0	n/a
90.70174197107553	0.75	4	early	dm_task_post	n/a	n/a	n/a	n/a	n/a
101.5	0.5	4	early	em_task_pre	n/a	n/a	n/a	n/a	n/a
102.0	2.7970141079277013	4	early	em_task	n/a	n/a	n/a	n/a	70.3338773212557
104.79701410792771	0.75	4	early	em_task_post	n/a	n/a	n/a	n/a	n/a
112.0	1.5	5	early	stimulus	n/a	15.0	n/a	n/a	n/a
117.5	0.5	5	early	dm_task_pre	n/a	n/a	n/a	n/a	n/a
118.0	0.606059259036556	5	early	dm_task	0.606059259036556	n/a	0.0	1.0	n/a
118.60605925903656	0.75	5	early	dm_task_post	n/a	n/a	n/a	n/a	n/a
129.5	0.5	5	early	em_task_pre	n/a	n/a	n/a	n/a	n/a
130.0	1.9368549650534987	5	early	em_task	n/a	n/a	n/a	n/a	11.0837907663098
131.9368549650535	0.75	5	early	em_task_post	n/a	n/a	n/a	n/a	n/a
140.0	1.5	6	early	stimulus	n/a	165.0	n/a	n/a	n/a
145.5	0.5	6	early	dm_task_pre	n/a	n/a	n/a	n/a	n/a
146.0	0.730222462909296	6	early	dm_task	0.730222462909296	n/a	-21.0	1.0	n/a
146.7302224629093	0.75	6	early	dm_task_post	n/a	n/a	n/a	n/a	n/a
157.5	0.5	6	early	em_task_pre	n/a	n/a	n/a	n/a	n/a
158.0	2.3429387910292014	6	early	em_task	n/a	n/a	n/a	n/a	154.008041530939
160.3429387910292	0.75	6	early	em_task_post	n/a	n/a	n/a	n/a	n/a
168.0	1.5	7	early	stimulus	n/a	120.0	n/a	n/a	n/a
173.5	0.5	7	early	dm_task_pre	n/a	n/a	n/a	n/a	n/a
174.0	0.653942526085302	7	early	dm_task	0.653942526085302	n/a	21.0	-1.0	n/a
174.6539425260853	0.75	7	early	dm_task_post	n/a	n/a	n/a	n/a	n/a
185.5	0.5	7	early	em_task_pre	n/a	n/a	n/a	n/a	n/a
186.0	2.249938083114099	7	early	em_task	n/a	n/a	n/a	n/a	124.780739837297
188.2499380831141	0.75	7	early	em_task_post	n/a	n/a	n/a	n/a	n/a
196.0	1.5	8	late	stimulus	n/a	150.0	n/a	n/a	n/a
207.5	0.5	8	late	dm_task_pre	n/a	n/a	n/a	n/a	n/a
208.0	0.556376903085038	8	late	dm_task	0.556376903085038	n/a	0.0	-1.0	n/a
208.55637690308504	0.75	8	late	dm_task_post	n/a	n/a	n/a	n/a	n/a
213.5	0.5	8	late	em_task_pre	n/a	n/a	n/a	n/a	n/a
214.0	2.1038961329031984	8	late	em_task	n/a	n/a	n/a	n/a	135.864357249517
216.1038961329032	0.75	8	late	em_task_post	n/a	n/a	n/a	n/a	n/a
224.0	1.5	9	late	stimulus	n/a	97.5	n/a	n/a	n/a
235.5	0.5	9	late	dm_task_pre	n/a	n/a	n/a	n/a	n/a
236.0	0.596911811036989	9	late	dm_task	0.596911811036989	n/a	-21.0	1.0	n/a
236.596911811037	0.75	9	late	dm_task_post	n/a	n/a	n/a	n/a	n/a
241.5	0.5	9	late	em_task_pre	n/a	n/a	n/a	n/a	n/a
242.0	1.7127148639410983	9	late	em_task	n/a	n/a	n/a	n/a	106.484735655623
243.7127148639411	0.75	9	late	em_task_post	n/a	n/a	n/a	n/a	n/a
252.0	1.5	10	late	stimulus	n/a	37.5	n/a	n/a	n/a
263.5	0.5	10	late	dm_task_pre	n/a	n/a	n/a	n/a	n/a
264.0	0.607139118947089	10	late	dm_task	0.607139118947089	n/a	4.0	1.0	n/a
264.6071391189471	0.75	10	late	dm_task_post	n/a	n/a	n/a	n/a	n/a
269.5	0.5	10	late	em_task_pre	n/a	n/a	n/a	n/a	n/a
270.0	2.8509831200354014	10	late	em_task	n/a	n/a	n/a	n/a	25.897722771055
272.8509831200354	0.75	10	late	em_task_post	n/a	n/a	n/a	n/a	n/a
280.0	1.5	11	late	stimulus	n/a	90.0	n/a	n/a	n/a
291.5	0.5	11	late	dm_task_pre	n/a	n/a	n/a	n/a	n/a
292.0	0.730020706076175	11	late	dm_task	0.730020706076175	n/a	-21.0	1.0	n/a
292.7300207060762	0.75	11	late	dm_task_post	n/a	n/a	n/a	n/a	n/a
297.5	0.5	11	late	em_task_pre	n/a	n/a	n/a	n/a	n/a
298.0	3.1097730901092007	11	late	em_task	n/a	n/a	n/a	n/a	88.2863712780694
301.10977309010923	0.75	11	late	em_task_post	n/a	n/a	n/a	n/a	n/a
308.0	1.5	12	early	stimulus	n/a	127.5	n/a	n/a	n/a
313.5	0.5	12	early	dm_task_pre	n/a	n/a	n/a	n/a	n/a
314.0	0.769737421069294	12	early	dm_task	0.769737421069294	n/a	21.0	-1.0	n/a
314.7697374210693	0.75	12	early	dm_task_post	n/a	n/a	n/a	n/a	n/a
325.5	0.5	12	early	em_task_pre	n/a	n/a	n/a	n/a	n/a
326.0	2.9314921270125005	12	early	em_task	n/a	n/a	n/a	n/a	125.67327877101
328.9314921270125	0.75	12	early	em_task_post	n/a	n/a	n/a	n/a	n/a
