onset	duration	trial	trial_type	event_type	response_time	value_stimulus	value_reference	response_decision	response_estimation
0.0	1.5	1	early	stimulus	n/a	135.0	n/a	n/a	n/a
5.5	0.5	1	early	dm_task_pre	n/a	n/a	n/a	n/a	n/a
6.0	0.640953461057507	1	early	dm_task	0.640953461057507	n/a	0.0	1.0	n/a
6.6409534610575065	0.75	1	early	dm_task_post	n/a	n/a	n/a	n/a	n/a
17.5	0.5	1	early	em_task_pre	n/a	n/a	n/a	n/a	n/a
18.0	4.335864680004299	1	early	em_task	n/a	n/a	n/a	n/a	134.909069843155
22.3358646800043	0.75	1	early	em_task_post	n/a	n/a	n/a	n/a	n/a
28.0	1.5	2	late	stimulus	n/a	37.5	n/a	n/a	n/a
39.5	0.5	2	late	dm_task_pre	n/a	n/a	n/a	n/a	n/a
40.0	0.564245852059685	2	late	dm_task	0.564245852059685	n/a	0.0	-1.0	n/a
40.564245852059685	0.75	2	late	dm_task_post	n/a	n/a	n/a	n/a	n/a
45.5	0.5	2	late	em_task_pre	n/a	n/a	n/a	n/a	n/a
46.0	3.193435222026899	2	late	em_task	n/a	n/a	n/a	n/a	47.322684741612
49.1934352220269	0.75	2	late	em_task_post	n/a	n/a	n/a	n/a	n/a
56.0	1.5	3	late	stimulus	n/a	52.5	n/a	n/a	n/a
67.5	0.5	3	late	dm_task_pre	n/a	n/a	n/a	n/a	n/a
68.0	0.570277692982927	3	late	dm_task	0.570277692982927	n/a	21.0	-1.0	n/a
68.57027769298293	0.75	3	late	dm_task_post	n/a	n/a	n/a	n/a	n/a
73.5	0.5	3	late	em_task_pre	n/a	n/a	n/a	n/a	n/a
74.0	1.400512379012099	3	late	em_task	n/a	n/a	n/a	n/a	55.9807442755464
75.4005123790121	0.75	3	late	em_task_post	n/a	n/a	n/a	n/a	n/a
84.0	1.5	4	early	stimulus	n/a	30.0	n/a	n/a	n/a
89.5	0.5	4	early	dm_task_pre	n/a	n/a	n/a	n/a	n/a
90.0	0.746074869995937	4	early	dm_task	0.746074869995937	n/a	-4.0	-1.0	n/a
90.74607486999594	0.75	4	early	dm_task_post	n/a	n/a	n/a	n/a	n/a
101.5	0.5	4	early	em_task_pre	n/a	n/a	n/a	n/a	n/a
102.0	1.7742764200083982	4	early	em_task	n/a	n/a	n/a	n/a	23.3399379598189
103.77427642000839	0.75	4	early	em_task_post	n/a	n/a	n/a	n/a	n/a
112.0	1.5	5	late	stimulus	n/a	120.0	n/a	n/a	n/a
123.5	0.5	5	late	dm_task_pre	n/a	n/a	n/a	n/a	n/a
124.0	0.532566242967732	5	late	dm_task	0.532566242967732	n/a	0.0	1.0	n/a
124.53256624296773	0.75	5	late	dm_task_post	n/a	n/a	n/a	n/a	n/a
129.5	0.5	5	late	em_task_pre	n/a	n/a	n/a	n/a	n/a
130.0	1.0979865130503015	5	late	em_task	n/a	n/a	n/a	n/a	129.960304398625
131.0979865130503	0.75	5	late	em_task_post	n/a	n/a	n/a	n/a	n/a
140.0	1.5	6	early	stimulus	n/a	60.0	n/a	n/a	n/a
145.5	0.5	6	early	dm_task_pre	n/a	n/a	n/a	n/a	n/a
146.0	0.639672343037091	6	early	dm_task	0.639672343037091	n/a	4.0	-1.0	n/a
146.6396723430371	0.75	6	early	dm_task_post	n/a	n/a	n/a	n/a	n/a
157.5	0.5	6	early	em_task_pre	n/a	n/a	n/a	n/a	n/a
158.0	1.5701985419728004	6	early	em_task	n/a	n/a	n/a	n/a	43.9304147517275
159.5701985419728	0.75	6	early	em_task_post	n/a	n/a	n/a	n/a	n/a
168.0	1.5	7	early	stimulus	n/a	90.0	n/a	n/a	n/a
173.5	0.5	7	early	dm_task_pre	n/a	n/a	n/a	n/a	n/a
174.0	0.663341208011843	7	early	dm_task	0.663341208011843	n/a	4.0	-1.0	n/a
174.66334120801184	0.75	7	early	dm_task_post	n/a	n/a	n/a	n/a	n/a
185.5	0.5	7	early	em_task_pre	n/a	n/a	n/a	n/a	n/a
186.0	2.5424545010319015	7	early	em_task	n/a	n/a	n/a	n/a	91.882743264752
188.5424545010319	0.75	7	early	em_task_post	n/a	n/a	n/a	n/a	n/a
196.0	1.5	8	late	stimulus	n/a	165.0	n/a	n/a	n/a
207.5	0.5	8	late	dm_task_pre	n/a	n/a	n/a	n/a	n/a
208.0	0.719560547033325	8	late	dm_task	0.719560547033325	n/a	-4.0	-1.0	n/a
208.71956054703332	0.75	8	late	dm_task_post	n/a	n/a	n/a	n/a	n/a
213.5	0.5	8	late	em_task_pre	n/a	n/a	n/a	n/a	n/a
214.0	2.4161119670607007	8	late	em_task	n/a	n/a	n/a	n/a	151.187299047547
216.41611196706071	0.75	8	late	em_task_post	n/a	n/a	n/a	n/a	n/a
224.0	1.5	9	early	stimulus	n/a	157.5	n/a	n/a	n/a
229.5	0.5	9	early	dm_task_pre	n/a	n/a	n/a	n/a	n/a
230.0	1.06067487795372	9	early	dm_task	1.06067487795372	n/a	-21.0	1.0	n/a
231.06067487795372	0.75	9	early	dm_task_post	n/a	n/a	n/a	n/a	n/a
241.5	0.5	9	early	em_task_pre	n/a	n/a	n/a	n/a	n/a
242.0	3.6719462280162	9	early	em_task	n/a	n/a	n/a	n/a	141.817082033755
245.6719462280162	0.75	9	early	em_task_post	n/a	n/a	n/a	n/a	n/a
252.0	1.5	10	late	stimulus	n/a	97.5	n/a	n/a	n/a
263.5	0.5	10	late	dm_task_pre	n/a	n/a	n/a	n/a	n/a
264.0	0.649603808997199	10	late	dm_task	0.649603808997199	n/a	0.0	1.0	n/a
264.6496038089972	0.75	10	late	dm_task_post	n/a	n/a	n/a	n/a	n/a
269.5	0.5	10	late	em_task_pre	n/a	n/a	n/a	n/a	n/a
270.0	3.5623159080277986	10	late	em_task	n/a	n/a	n/a	n/a	99.5682305181025
273.5623159080278	0.75	10	late	em_task_post	n/a	n/a	n/a	n/a	n/a
280.0	1.5	11	late	stimulus	n/a	105.0	n/a	n/a	n/a
291.5	0.5	11	late	dm_task_pre	n/a	n/a	n/a	n/a	n/a
292.0	0.721344672958367	11	late	dm_task	0.721344672958367	n/a	21.0	-1.0	n/a
292.72134467295837	0.75	11	late	dm_task_post	n/a	n/a	n/a	n/a	n/a
297.5	0.5	11	late	em_task_pre	n/a	n/a	n/a	n/a	n/a
298.0	1.5849349920171996	11	late	em_task	n/a	n/a	n/a	n/a	110.455420615429
299.5849349920172	0.75	11	late	em_task_post	n/a	n/a	n/a	n/a	n/a
308.0	1.5	12	late	stimulus	n/a	172.5	n/a	n/a	n/a
319.5	0.5	12	late	dm_task_pre	n/a	n/a	n/a	n/a	n/a
320.0	0.695134371053427	12	late	dm_task	0.695134371053427	n/a	21.0	-1.0	n/a
320.6951343710534	0.75	12	late	dm_task_post	n/a	n/a	n/a	n/a	n/a
325.5	0.5	12	late	em_task_pre	n/a	n/a	n/a	n/a	n/a
326.0	3.108628495014301	12	late	em_task	n/a	n/a	n/a	n/a	169.360668404737
329.1086284950143	0.75	12	late	em_task_post	n/a	n/a	n/a	n/a	n/a
