onset	duration	trial	trial_type	event_type	response_time	value_stimulus	value_reference	response_decision	response_estimation
0.0	1.5	1	late	stimulus	n/a	90.0	n/a	n/a	n/a
11.5	0.5	1	late	dm_task_pre	n/a	n/a	n/a	n/a	n/a
12.0	1.06620020999981	1	late	dm_task	1.06620020999981	n/a	0.0	1.0	n/a
13.06620020999981	0.75	1	late	dm_task_post	n/a	n/a	n/a	n/a	n/a
17.5	0.5	1	late	em_task_pre	n/a	n/a	n/a	n/a	n/a
18.0	1.1126216100020017	1	late	em_task	n/a	n/a	n/a	n/a	99.8197325238147
19.112621610002	0.75	1	late	em_task_post	n/a	n/a	n/a	n/a	n/a
28.0	1.5	2	early	stimulus	n/a	15.0	n/a	n/a	n/a
33.5	0.5	2	early	dm_task_pre	n/a	n/a	n/a	n/a	n/a
34.0	0.492452351001702	2	early	dm_task	0.492452351001702	n/a	-4.0	1.0	n/a
34.4924523510017	0.75	2	early	dm_task_post	n/a	n/a	n/a	n/a	n/a
45.5	0.5	2	early	em_task_pre	n/a	n/a	n/a	n/a	n/a
46.0	2.6034944420025994	2	early	em_task	n/a	n/a	n/a	n/a	13.2852579429199
48.6034944420026	0.75	2	early	em_task_post	n/a	n/a	n/a	n/a	n/a
56.0	1.5	3	late	stimulus	n/a	67.5	n/a	n/a	n/a
67.5	0.5	3	late	dm_task_pre	n/a	n/a	n/a	n/a	n/a
68.0	1.03173461800179	3	late	dm_task	1.03173461800179	n/a	0.0	-1.0	n/a
69.03173461800179	0.75	3	late	dm_task_post	n/a	n/a	n/a	n/a	n/a
73.5	0.5	3	late	em_task_pre	n/a	n/a	n/a	n/a	n/a
74.0	1.6952338040028003	3	late	em_task	n/a	n/a	n/a	n/a	55.3314031194544
75.6952338040028	0.75	3	late	em_task_post	n/a	n/a	n/a	n/a	n/a
84.0	1.5	4	late	stimulus	n/a	37.5	n/a	n/a	n/a
95.5	0.5	4	late	dm_task_pre	n/a	n/a	n/a	n/a	n/a
96.0	0.790004312002566	4	late	dm_task	0.790004312002566	n/a	21.0	-1.0	n/a
96.79000431200257	0.75	4	late	dm_task_post	n/a	n/a	n/a	n/a	n/a
101.5	0.5	4	late	em_task_pre	n/a	n/a	n/a	n/a	n/a
102.0	2.8028021930003995	4	late	em_task	n/a	n/a	n/a	n/a	30.5133542673259
104.8028021930004	0.75	4	late	em_task_post	n/a	n/a	n/a	n/a	n/a
112.0	1.5	5	late	stimulus	n/a	22.5	n/a	n/a	n/a
123.5	0.5	5	late	dm_task_pre	n/a	n/a	n/a	n/a	n/a
124.0	1.05472207899948	5	late	dm_task	1.05472207899948	n/a	-4.0	-1.0	n/a
125.05472207899948	0.75	5	late	dm_task_post	n/a	n/a	n/a	n/a	n/a
129.5	0.5	5	late	em_task_pre	n/a	n/a	n/a	n/a	n/a
130.0	1.0160958920023013	5	late	em_task	n/a	n/a	n/a	n/a	9.67624848499682
131.0160958920023	0.75	5	late	em_task_post	n/a	n/a	n/a	n/a	n/a
140.0	1.5	6	early	stimulus	n/a	112.5	n/a	n/a	n/a
145.5	0.5	6	early	dm_task_pre	n/a	n/a	n/a	n/a	n/a
146.0	0.857640056001401	6	early	dm_task	0.857640056001401	n/a	4.0	-1.0	n/a
146.8576400560014	0.75	6	early	dm_task_post	n/a	n/a	n/a	n/a	n/a
157.5	0.5	6	early	em_task_pre	n/a	n/a	n/a	n/a	n/a
158.0	2.4853504380008005	6	early	em_task	n/a	n/a	n/a	n/a	105.496051566094
160.4853504380008	0.75	6	early	em_task_post	n/a	n/a	n/a	n/a	n/a
168.0	1.5	7	early	stimulus	n/a	105.0	n/a	n/a	n/a
173.5	0.5	7	early	dm_task_pre	n/a	n/a	n/a	n/a	n/a
174.0	0.715521512000123	7	early	dm_task	0.715521512000123	n/a	-4.0	1.0	n/a
174.71552151200012	0.75	7	early	dm_task_post	n/a	n/a	n/a	n/a	n/a
185.5	0.5	7	early	em_task_pre	n/a	n/a	n/a	n/a	n/a
186.0	1.360077324999999	7	early	em_task	n/a	n/a	n/a	n/a	107.327461195636
187.360077325	0.75	7	early	em_task_post	n/a	n/a	n/a	n/a	n/a
196.0	1.5	8	early	stimulus	n/a	0.0	n/a	n/a	n/a
201.5	0.5	8	early	dm_task_pre	n/a	n/a	n/a	n/a	n/a
202.0	1.48989430700021	8	early	dm_task	1.48989430700021	n/a	21.0	1.0	n/a
203.4898943070002	0.75	8	early	dm_task_post	n/a	n/a	n/a	n/a	n/a
213.5	0.5	8	early	em_task_pre	n/a	n/a	n/a	n/a	n/a
214.0	1.3352432560023004	8	early	em_task	n/a	n/a	n/a	n/a	35.9175618324857
215.3352432560023	0.75	8	early	em_task_post	n/a	n/a	n/a	n/a	n/a
224.0	1.5	9	late	stimulus	n/a	142.5	n/a	n/a	n/a
235.5	0.5	9	late	dm_task_pre	n/a	n/a	n/a	n/a	n/a
236.0	0.84349804500016	9	late	dm_task	0.84349804500016	n/a	21.0	-1.0	n/a
236.84349804500016	0.75	9	late	dm_task_post	n/a	n/a	n/a	n/a	n/a
241.5	0.5	9	late	em_task_pre	n/a	n/a	n/a	n/a	n/a
242.0	1.1762137840014013	9	late	em_task	n/a	n/a	n/a	n/a	143.346940088237
243.1762137840014	0.75	9	late	em_task_post	n/a	n/a	n/a	n/a	n/a
252.0	1.5	10	late	stimulus	n/a	165.0	n/a	n/a	n/a
263.5	0.5	10	late	dm_task_pre	n/a	n/a	n/a	n/a	n/a
264.0	0.837495223000587	10	late	dm_task	0.837495223000587	n/a	-21.0	1.0	n/a
264.8374952230006	0.75	10	late	dm_task_post	n/a	n/a	n/a	n/a	n/a
269.5	0.5	10	late	em_task_pre	n/a	n/a	n/a	n/a	n/a
270.0	1.5840805560000994	10	late	em_task	n/a	n/a	n/a	n/a	155.4492952278
271.5840805560001	0.75	10	late	em_task_post	n/a	n/a	n/a	n/a	n/a
280.0	1.5	11	late	stimulus	n/a	82.5	n/a	n/a	n/a
291.5	0.5	11	late	dm_task_pre	n/a	n/a	n/a	n/a	n/a
292.0	1.0760074250029	11	late	dm_task	1.0760074250029	n/a	0.0	-1.0	n/a
293.0760074250029	0.75	11	late	dm_task_post	n/a	n/a	n/a	n/a	n/a
297.5	0.5	11	late	em_task_pre	n/a	n/a	n/a	n/a	n/a
298.0	4.241361413001901	11	late	em_task	n/a	n/a	n/a	n/a	113.895565583381
302.2413614130019	0.75	11	late	em_task_post	n/a	n/a	n/a	n/a	n/a
308.0	1.5	12	late	stimulus	n/a	157.5	n/a	n/a	n/a
319.5	0.5	12	late	dm_task_pre	n/a	n/a	n/a	n/a	n/a
320.0	0.583887058000983	12	late	dm_task	0.583887058000983	n/a	21.0	-1.0	n/a
320.583887058001	0.75	12	late	dm_task_post	n/a	n/a	n/a	n/a	n/a
325.5	0.5	12	late	em_task_pre	n/a	n/a	n/a	n/a	n/a
326.0	0.9664479820021015	12	late	em_task	n/a	n/a	n/a	n/a	157.15155572232
326.9664479820021	0.75	12	late	em_task_post	n/a	n/a	n/a	n/a	n/a
