onset	duration	trial	trial_type	event_type	response_time	value_stimulus	value_reference	response_decision	response_estimation
0.0	1.5	1	late	stimulus	n/a	157.5	n/a	n/a	n/a
11.5	0.5	1	late	dm_task_pre	n/a	n/a	n/a	n/a	n/a
12.0	0.805411364002794	1	late	dm_task	0.805411364002794	n/a	-4.0	-1.0	n/a
12.805411364002794	0.75	1	late	dm_task_post	n/a	n/a	n/a	n/a	n/a
17.5	0.5	1	late	em_task_pre	n/a	n/a	n/a	n/a	n/a
18.0	2.6360635430027983	1	late	em_task	n/a	n/a	n/a	n/a	147.27184739366
20.6360635430028	0.75	1	late	em_task_post	n/a	n/a	n/a	n/a	n/a
28.0	1.5	2	early	stimulus	n/a	142.5	n/a	n/a	n/a
33.5	0.5	2	early	dm_task_pre	n/a	n/a	n/a	n/a	n/a
34.0	1.5	2	early	dm_task	n/a	n/a	4.0	n/a	n/a
35.5	0.75	2	early	dm_task_post	n/a	n/a	n/a	n/a	n/a
45.5	0.5	2	early	em_task_pre	n/a	n/a	n/a	n/a	n/a
46.0	1.7261538170060007	2	early	em_task	n/a	n/a	n/a	n/a	157.382685212433
47.726153817006	0.75	2	early	em_task_post	n/a	n/a	n/a	n/a	n/a
56.0	1.5	3	early	stimulus	n/a	127.5	n/a	n/a	n/a
61.5	0.5	3	early	dm_task_pre	n/a	n/a	n/a	n/a	n/a
62.0	1.38641479700163	3	early	dm_task	1.38641479700163	n/a	0.0	1.0	n/a
63.38641479700163	0.75	3	early	dm_task_post	n/a	n/a	n/a	n/a	n/a
73.5	0.5	3	early	em_task_pre	n/a	n/a	n/a	n/a	n/a
74.0	2.9501485180007982	3	early	em_task	n/a	n/a	n/a	n/a	132.088494364501
76.9501485180008	0.75	3	early	em_task_post	n/a	n/a	n/a	n/a	n/a
84.0	1.5	4	late	stimulus	n/a	67.5	n/a	n/a	n/a
95.5	0.5	4	late	dm_task_pre	n/a	n/a	n/a	n/a	n/a
96.0	0.575121535002836	4	late	dm_task	0.575121535002836	n/a	-4.0	-1.0	n/a
96.57512153500284	0.75	4	late	dm_task_post	n/a	n/a	n/a	n/a	n/a
101.5	0.5	4	late	em_task_pre	n/a	n/a	n/a	n/a	n/a
102.0	2.9892879120016005	4	late	em_task	n/a	n/a	n/a	n/a	55.6174151747033
104.9892879120016	0.75	4	late	em_task_post	n/a	n/a	n/a	n/a	n/a
112.0	1.5	5	early	stimulus	n/a	90.0	n/a	n/a	n/a
117.5	0.5	5	early	dm_task_pre	n/a	n/a	n/a	n/a	n/a
118.0	0.882275312003912	5	early	dm_task	0.882275312003912	n/a	-21.0	1.0	n/a
118.88227531200391	0.75	5	early	dm_task_post	n/a	n/a	n/a	n/a	n/a
129.5	0.5	5	early	em_task_pre	n/a	n/a	n/a	n/a	n/a
130.0	2.2293995319997	5	early	em_task	n/a	n/a	n/a	n/a	81.3586821309505
132.2293995319997	0.75	5	early	em_task_post	n/a	n/a	n/a	n/a	n/a
140.0	1.5	6	late	stimulus	n/a	135.0	n/a	n/a	n/a
151.5	0.5	6	late	dm_task_pre	n/a	n/a	n/a	n/a	n/a
152.0	0.737617588005378	6	late	dm_task	0.737617588005378	n/a	21.0	-1.0	n/a
152.73761758800538	0.75	6	late	dm_task_post	n/a	n/a	n/a	n/a	n/a
157.5	0.5	6	late	em_task_pre	n/a	n/a	n/a	n/a	n/a
158.0	4.5	6	late	em_task	n/a	n/a	n/a	n/a	n/a
162.5	0.75	6	late	em_task_post	n/a	n/a	n/a	n/a	n/a
168.0	1.5	7	early	stimulus	n/a	45.0	n/a	n/a	n/a
173.5	0.5	7	early	dm_task_pre	n/a	n/a	n/a	n/a	n/a
174.0	0.664434669000912	7	early	dm_task	0.664434669000912	n/a	4.0	1.0	n/a
174.6644346690009	0.75	7	early	dm_task_post	n/a	n/a	n/a	n/a	n/a
185.5	0.5	7	early	em_task_pre	n/a	n/a	n/a	n/a	n/a
186.0	3.1416309760024994	7	early	em_task	n/a	n/a	n/a	n/a	55.7485374006736
189.1416309760025	0.75	7	early	em_task_post	n/a	n/a	n/a	n/a	n/a
196.0	1.5	8	late	stimulus	n/a	150.0	n/a	n/a	n/a
207.5	0.5	8	late	dm_task_pre	n/a	n/a	n/a	n/a	n/a
208.0	0.834601828006271	8	late	dm_task	0.834601828006271	n/a	-21.0	-1.0	n/a
208.83460182800627	0.75	8	late	dm_task_post	n/a	n/a	n/a	n/a	n/a
213.5	0.5	8	late	em_task_pre	n/a	n/a	n/a	n/a	n/a
214.0	2.532440429000399	8	late	em_task	n/a	n/a	n/a	n/a	103.167000788931
216.5324404290004	0.75	8	late	em_task_post	n/a	n/a	n/a	n/a	n/a
224.0	1.5	9	late	stimulus	n/a	120.0	n/a	n/a	n/a
235.5	0.5	9	late	dm_task_pre	n/a	n/a	n/a	n/a	n/a
236.0	1.40689942300378	9	late	dm_task	1.40689942300378	n/a	0.0	-1.0	n/a
237.40689942300378	0.75	9	late	dm_task_post	n/a	n/a	n/a	n/a	n/a
241.5	0.5	9	late	em_task_pre	n/a	n/a	n/a	n/a	n/a
242.0	1.638141539006	9	late	em_task	n/a	n/a	n/a	n/a	109.549174302929
243.638141539006	0.75	9	late	em_task_post	n/a	n/a	n/a	n/a	n/a
252.0	1.5	10	late	stimulus	n/a	37.5	n/a	n/a	n/a
263.5	0.5	10	late	dm_task_pre	n/a	n/a	n/a	n/a	n/a
264.0	0.680947655004275	10	late	dm_task	0.680947655004275	n/a	4.0	-1.0	n/a
264.6809476550043	0.75	10	late	dm_task_post	n/a	n/a	n/a	n/a	n/a
269.5	0.5	10	late	em_task_pre	n/a	n/a	n/a	n/a	n/a
270.0	2.8608496490051003	10	late	em_task	n/a	n/a	n/a	n/a	25.0413286480979
272.8608496490051	0.75	10	late	em_task_post	n/a	n/a	n/a	n/a	n/a
280.0	1.5	11	late	stimulus	n/a	112.5	n/a	n/a	n/a
291.5	0.5	11	late	dm_task_pre	n/a	n/a	n/a	n/a	n/a
292.0	0.586728972004494	11	late	dm_task	0.586728972004494	n/a	4.0	-1.0	n/a
292.5867289720045	0.75	11	late	dm_task_post	n/a	n/a	n/a	n/a	n/a
297.5	0.5	11	late	em_task_pre	n/a	n/a	n/a	n/a	n/a
298.0	1.5009154810032008	11	late	em_task	n/a	n/a	n/a	n/a	108.259701523039
299.5009154810032	0.75	11	late	em_task_post	n/a	n/a	n/a	n/a	n/a
308.0	1.5	12	early	stimulus	n/a	15.0	n/a	n/a	n/a
313.5	0.5	12	early	dm_task_pre	n/a	n/a	n/a	n/a	n/a
314.0	1.04462456500187	12	early	dm_task	1.04462456500187	n/a	21.0	-1.0	n/a
315.04462456500187	0.75	12	early	dm_task_post	n/a	n/a	n/a	n/a	n/a
325.5	0.5	12	early	em_task_pre	n/a	n/a	n/a	n/a	n/a
326.0	2.3410718000014015	12	early	em_task	n/a	n/a	n/a	n/a	12.6069345134141
328.3410718000014	0.75	12	early	em_task_post	n/a	n/a	n/a	n/a	n/a
