onset	duration	trial	trial_type	event_type	response_time	value_stimulus	value_reference	response_decision	response_estimation
0.0	1.5	1	early	stimulus	n/a	37.5	n/a	n/a	n/a
5.5	0.5	1	early	dm_task_pre	n/a	n/a	n/a	n/a	n/a
6.0	0.764955496999846	1	early	dm_task	0.764955496999846	n/a	-21.0	1.0	n/a
6.764955496999846	0.75	1	early	dm_task_post	n/a	n/a	n/a	n/a	n/a
17.5	0.5	1	early	em_task_pre	n/a	n/a	n/a	n/a	n/a
18.0	2.2989649839996993	1	early	em_task	n/a	n/a	n/a	n/a	18.4517519609216
20.2989649839997	0.75	1	early	em_task_post	n/a	n/a	n/a	n/a	n/a
28.0	1.5	2	early	stimulus	n/a	67.5	n/a	n/a	n/a
33.5	0.5	2	early	dm_task_pre	n/a	n/a	n/a	n/a	n/a
34.0	0.812899646000005	2	early	dm_task	0.812899646000005	n/a	0.0	-1.0	n/a
34.812899646000005	0.75	2	early	dm_task_post	n/a	n/a	n/a	n/a	n/a
45.5	0.5	2	early	em_task_pre	n/a	n/a	n/a	n/a	n/a
46.0	2.5960130859998998	2	early	em_task	n/a	n/a	n/a	n/a	58.5853206204332
48.5960130859999	0.75	2	early	em_task_post	n/a	n/a	n/a	n/a	n/a
56.0	1.5	3	late	stimulus	n/a	45.0	n/a	n/a	n/a
67.5	0.5	3	late	dm_task_pre	n/a	n/a	n/a	n/a	n/a
68.0	0.693904664999991	3	late	dm_task	0.693904664999991	n/a	-4.0	1.0	n/a
68.69390466499999	0.75	3	late	dm_task_post	n/a	n/a	n/a	n/a	n/a
73.5	0.5	3	late	em_task_pre	n/a	n/a	n/a	n/a	n/a
74.0	2.4798304070000015	3	late	em_task	n/a	n/a	n/a	n/a	47.4000567102826
76.47983040700001	0.75	3	late	em_task_post	n/a	n/a	n/a	n/a	n/a
84.0	1.5	4	late	stimulus	n/a	112.5	n/a	n/a	n/a
95.5	0.5	4	late	dm_task_pre	n/a	n/a	n/a	n/a	n/a
96.0	0.594238850999773	4	late	dm_task	0.594238850999773	n/a	21.0	-1.0	n/a
96.59423885099977	0.75	4	late	dm_task_post	n/a	n/a	n/a	n/a	n/a
101.5	0.5	4	late	em_task_pre	n/a	n/a	n/a	n/a	n/a
102.0	3.0447682869999007	4	late	em_task	n/a	n/a	n/a	n/a	130.662241056606
105.0447682869999	0.75	4	late	em_task_post	n/a	n/a	n/a	n/a	n/a
112.0	1.5	5	early	stimulus	n/a	52.5	n/a	n/a	n/a
117.5	0.5	5	early	dm_task_pre	n/a	n/a	n/a	n/a	n/a
118.0	0.59419459999981	5	early	dm_task	0.59419459999981	n/a	4.0	-1.0	n/a
118.59419459999981	0.75	5	early	dm_task_post	n/a	n/a	n/a	n/a	n/a
129.5	0.5	5	early	em_task_pre	n/a	n/a	n/a	n/a	n/a
130.0	3.4765235779996004	5	early	em_task	n/a	n/a	n/a	n/a	53.7727931758458
133.47652357799961	0.75	5	early	em_task_post	n/a	n/a	n/a	n/a	n/a
140.0	1.5	6	early	stimulus	n/a	142.5	n/a	n/a	n/a
145.5	0.5	6	early	dm_task_pre	n/a	n/a	n/a	n/a	n/a
146.0	0.644151166000029	6	early	dm_task	0.644151166000029	n/a	4.0	-1.0	n/a
146.64415116600003	0.75	6	early	dm_task_post	n/a	n/a	n/a	n/a	n/a
157.5	0.5	6	early	em_task_pre	n/a	n/a	n/a	n/a	n/a
158.0	2.3584167849999	6	early	em_task	n/a	n/a	n/a	n/a	147.393768462734
160.3584167849999	0.75	6	early	em_task_post	n/a	n/a	n/a	n/a	n/a
168.0	1.5	7	late	stimulus	n/a	172.5	n/a	n/a	n/a
179.5	0.5	7	late	dm_task_pre	n/a	n/a	n/a	n/a	n/a
180.0	0.791512632999911	7	late	dm_task	0.791512632999911	n/a	0.0	-1.0	n/a
180.7915126329999	0.75	7	late	dm_task_post	n/a	n/a	n/a	n/a	n/a
185.5	0.5	7	late	em_task_pre	n/a	n/a	n/a	n/a	n/a
186.0	3.3254999569998986	7	late	em_task	n/a	n/a	n/a	n/a	170.299630489021
189.3254999569999	0.75	7	late	em_task_post	n/a	n/a	n/a	n/a	n/a
196.0	1.5	8	late	stimulus	n/a	22.5	n/a	n/a	n/a
207.5	0.5	8	late	dm_task_pre	n/a	n/a	n/a	n/a	n/a
208.0	1.27357216199971	8	late	dm_task	1.27357216199971	n/a	0.0	-1.0	n/a
209.2735721619997	0.75	8	late	dm_task_post	n/a	n/a	n/a	n/a	n/a
213.5	0.5	8	late	em_task_pre	n/a	n/a	n/a	n/a	n/a
214.0	3.1744054659998007	8	late	em_task	n/a	n/a	n/a	n/a	22.9134038991485
217.1744054659998	0.75	8	late	em_task_post	n/a	n/a	n/a	n/a	n/a
224.0	1.5	9	early	stimulus	n/a	0.0	n/a	n/a	n/a
229.5	0.5	9	early	dm_task_pre	n/a	n/a	n/a	n/a	n/a
230.0	1.5	9	early	dm_task	1.55727694899997	n/a	4.0	-1.0	n/a
231.5	0.75	9	early	dm_task_post	n/a	n/a	n/a	n/a	n/a
241.5	0.5	9	early	em_task_pre	n/a	n/a	n/a	n/a	n/a
242.0	3.641228766000001	9	early	em_task	n/a	n/a	n/a	n/a	3.63850019161782
245.641228766	0.75	9	early	em_task_post	n/a	n/a	n/a	n/a	n/a
252.0	1.5	10	late	stimulus	n/a	127.5	n/a	n/a	n/a
263.5	0.5	10	late	dm_task_pre	n/a	n/a	n/a	n/a	n/a
264.0	0.807070543000009	10	late	dm_task	0.807070543000009	n/a	0.0	-1.0	n/a
264.807070543	0.75	10	late	dm_task_post	n/a	n/a	n/a	n/a	n/a
269.5	0.5	10	late	em_task_pre	n/a	n/a	n/a	n/a	n/a
270.0	2.1555712669997007	10	late	em_task	n/a	n/a	n/a	n/a	126.002885936357
272.1555712669997	0.75	10	late	em_task_post	n/a	n/a	n/a	n/a	n/a
280.0	1.5	11	early	stimulus	n/a	82.5	n/a	n/a	n/a
285.5	0.5	11	early	dm_task_pre	n/a	n/a	n/a	n/a	n/a
286.0	0.755706030000056	11	early	dm_task	0.755706030000056	n/a	0.0	-1.0	n/a
286.75570603000006	0.75	11	early	dm_task_post	n/a	n/a	n/a	n/a	n/a
297.5	0.5	11	early	em_task_pre	n/a	n/a	n/a	n/a	n/a
298.0	2.7219006699997017	11	early	em_task	n/a	n/a	n/a	n/a	73.0191485410305
300.7219006699997	0.75	11	early	em_task_post	n/a	n/a	n/a	n/a	n/a
308.0	1.5	12	early	stimulus	n/a	15.0	n/a	n/a	n/a
313.5	0.5	12	early	dm_task_pre	n/a	n/a	n/a	n/a	n/a
314.0	0.837046227999963	12	early	dm_task	0.837046227999963	n/a	4.0	1.0	n/a
314.83704622799996	0.75	12	early	dm_task_post	n/a	n/a	n/a	n/a	n/a
325.5	0.5	12	early	em_task_pre	n/a	n/a	n/a	n/a	n/a
326.0	3.3367804780000014	12	early	em_task	n/a	n/a	n/a	n/a	22.1321419975649
329.336780478	0.75	12	early	em_task_post	n/a	n/a	n/a	n/a	n/a
