onset	duration	trial	trial_type	event_type	response_time	value_stimulus	value_reference	response_decision	response_estimation
0.0	1.5	1	late	stimulus	n/a	90.0	n/a	n/a	n/a
11.5	0.5	1	late	dm_task_pre	n/a	n/a	n/a	n/a	n/a
12.0	1.31057401099997	1	late	dm_task	1.31057401099997	n/a	0.0	1.0	n/a
13.31057401099997	0.75	1	late	dm_task_post	n/a	n/a	n/a	n/a	n/a
17.5	0.5	1	late	em_task_pre	n/a	n/a	n/a	n/a	n/a
18.0	4.179207346000101	1	late	em_task	n/a	n/a	n/a	n/a	88.4947443645007
22.1792073460001	0.75	1	late	em_task_post	n/a	n/a	n/a	n/a	n/a
28.0	1.5	2	early	stimulus	n/a	60.0	n/a	n/a	n/a
33.5	0.5	2	early	dm_task_pre	n/a	n/a	n/a	n/a	n/a
34.0	0.9779056819998	2	early	dm_task	0.9779056819998	n/a	-21.0	-1.0	n/a
34.9779056819998	0.75	2	early	dm_task_post	n/a	n/a	n/a	n/a	n/a
45.5	0.5	2	early	em_task_pre	n/a	n/a	n/a	n/a	n/a
46.0	3.3937314979999016	2	early	em_task	n/a	n/a	n/a	n/a	35.9299151747033
49.3937314979999	0.75	2	early	em_task_post	n/a	n/a	n/a	n/a	n/a
56.0	1.5	3	early	stimulus	n/a	172.5	n/a	n/a	n/a
61.5	0.5	3	early	dm_task_pre	n/a	n/a	n/a	n/a	n/a
62.0	0.808935119000125	3	early	dm_task	0.808935119000125	n/a	-21.0	1.0	n/a
62.808935119000125	0.75	3	early	dm_task_post	n/a	n/a	n/a	n/a	n/a
73.5	0.5	3	early	em_task_pre	n/a	n/a	n/a	n/a	n/a
74.0	2.759677791999799	3	early	em_task	n/a	n/a	n/a	n/a	153.78055713095
76.75967779199979	0.75	3	early	em_task_post	n/a	n/a	n/a	n/a	n/a
84.0	1.5	4	early	stimulus	n/a	135.0	n/a	n/a	n/a
89.5	0.5	4	early	dm_task_pre	n/a	n/a	n/a	n/a	n/a
90.0	0.742091017999883	4	early	dm_task	0.742091017999883	n/a	0.0	-1.0	n/a
90.74209101799988	0.75	4	early	dm_task_post	n/a	n/a	n/a	n/a	n/a
101.5	0.5	4	early	em_task_pre	n/a	n/a	n/a	n/a	n/a
102.0	2.7915248640001984	4	early	em_task	n/a	n/a	n/a	n/a	139.735324616388
104.7915248640002	0.75	4	early	em_task_post	n/a	n/a	n/a	n/a	n/a
112.0	1.5	5	late	stimulus	n/a	37.5	n/a	n/a	n/a
123.5	0.5	5	late	dm_task_pre	n/a	n/a	n/a	n/a	n/a
124.0	0.741140500999791	5	late	dm_task	0.741140500999791	n/a	21.0	-1.0	n/a
124.74114050099979	0.75	5	late	dm_task_post	n/a	n/a	n/a	n/a	n/a
129.5	0.5	5	late	em_task_pre	n/a	n/a	n/a	n/a	n/a
130.0	2.8082129439999015	5	late	em_task	n/a	n/a	n/a	n/a	56.4516624006736
132.8082129439999	0.75	5	late	em_task_post	n/a	n/a	n/a	n/a	n/a
140.0	1.5	6	late	stimulus	n/a	0.0	n/a	n/a	n/a
151.5	0.5	6	late	dm_task_pre	n/a	n/a	n/a	n/a	n/a
152.0	0.721812626999963	6	late	dm_task	0.721812626999963	n/a	0.0	-1.0	n/a
152.72181262699996	0.75	6	late	dm_task_post	n/a	n/a	n/a	n/a	n/a
157.5	0.5	6	late	em_task_pre	n/a	n/a	n/a	n/a	n/a
158.0	4.5	6	late	em_task	n/a	n/a	n/a	n/a	n/a
162.5	0.75	6	late	em_task_post	n/a	n/a	n/a	n/a	n/a
168.0	1.5	7	early	stimulus	n/a	7.5	n/a	n/a	n/a
173.5	0.5	7	early	dm_task_pre	n/a	n/a	n/a	n/a	n/a
174.0	1.18954191700004	7	early	dm_task	1.18954191700004	n/a	0.0	1.0	n/a
175.18954191700004	0.75	7	early	dm_task_post	n/a	n/a	n/a	n/a	n/a
185.5	0.5	7	early	em_task_pre	n/a	n/a	n/a	n/a	n/a
186.0	3.4557230549999005	7	early	em_task	n/a	n/a	n/a	n/a	16.7366743029291
189.4557230549999	0.75	7	early	em_task_post	n/a	n/a	n/a	n/a	n/a
196.0	1.5	8	early	stimulus	n/a	157.5	n/a	n/a	n/a
201.5	0.5	8	early	dm_task_pre	n/a	n/a	n/a	n/a	n/a
202.0	0.770104663999973	8	early	dm_task	0.770104663999973	n/a	4.0	-1.0	n/a
202.77010466399997	0.75	8	early	dm_task_post	n/a	n/a	n/a	n/a	n/a
213.5	0.5	8	early	em_task_pre	n/a	n/a	n/a	n/a	n/a
214.0	2.4381482220000983	8	early	em_task	n/a	n/a	n/a	n/a	168.478828648098
216.4381482220001	0.75	8	early	em_task_post	n/a	n/a	n/a	n/a	n/a
224.0	1.5	9	early	stimulus	n/a	120.0	n/a	n/a	n/a
229.5	0.5	9	early	dm_task_pre	n/a	n/a	n/a	n/a	n/a
230.0	1.13819826899999	9	early	dm_task	1.13819826899999	n/a	0.0	1.0	n/a
231.138198269	0.75	9	early	dm_task_post	n/a	n/a	n/a	n/a	n/a
241.5	0.5	9	early	em_task_pre	n/a	n/a	n/a	n/a	n/a
242.0	2.2208548489997995	9	early	em_task	n/a	n/a	n/a	n/a	123.728451523039
244.2208548489998	0.75	9	early	em_task_post	n/a	n/a	n/a	n/a	n/a
252.0	1.5	10	early	stimulus	n/a	82.5	n/a	n/a	n/a
257.5	0.5	10	early	dm_task_pre	n/a	n/a	n/a	n/a	n/a
258.0	0.704326291000143	10	early	dm_task	0.704326291000143	n/a	4.0	-1.0	n/a
258.70432629100014	0.75	10	early	dm_task_post	n/a	n/a	n/a	n/a	n/a
269.5	0.5	10	early	em_task_pre	n/a	n/a	n/a	n/a	n/a
270.0	2.3187183079999016	10	early	em_task	n/a	n/a	n/a	n/a	85.0288095134141
272.3187183079999	0.75	10	early	em_task_post	n/a	n/a	n/a	n/a	n/a
280.0	1.5	11	early	stimulus	n/a	97.5	n/a	n/a	n/a
285.5	0.5	11	early	dm_task_pre	n/a	n/a	n/a	n/a	n/a
286.0	1.43567724400009	11	early	dm_task	1.43567724400009	n/a	0.0	1.0	n/a
287.4356772440001	0.75	11	early	dm_task_post	n/a	n/a	n/a	n/a	n/a
297.5	0.5	11	early	em_task_pre	n/a	n/a	n/a	n/a	n/a
298.0	2.4018268959999	11	early	em_task	n/a	n/a	n/a	n/a	101.659682445823
300.4018268959999	0.75	11	early	em_task_post	n/a	n/a	n/a	n/a	n/a
308.0	1.5	12	late	stimulus	n/a	67.5	n/a	n/a	n/a
319.5	0.5	12	late	dm_task_pre	n/a	n/a	n/a	n/a	n/a
320.0	0.933697227999801	12	late	dm_task	0.933697227999801	n/a	0.0	-1.0	n/a
320.9336972279998	0.75	12	late	dm_task_post	n/a	n/a	n/a	n/a	n/a
325.5	0.5	12	late	em_task_pre	n/a	n/a	n/a	n/a	n/a
326.0	2.1167573839998006	12	late	em_task	n/a	n/a	n/a	n/a	64.255419331044
328.1167573839998	0.75	12	late	em_task_post	n/a	n/a	n/a	n/a	n/a
