onset	duration	trial	trial_type	event_type	response_time	value_stimulus	value_reference	response_decision	response_estimation
0.0	1.5	1	late	stimulus	n/a	97.5	n/a	n/a	n/a
11.5	0.5	1	late	dm_task_pre	n/a	n/a	n/a	n/a	n/a
12.0	0.499483311010408	1	late	dm_task	0.499483311010408	n/a	-21.0	1.0	n/a
12.499483311010408	0.75	1	late	dm_task_post	n/a	n/a	n/a	n/a	n/a
17.5	0.5	1	late	em_task_pre	n/a	n/a	n/a	n/a	n/a
18.0	4.403490327007599	1	late	em_task	n/a	n/a	n/a	n/a	109.154876960922
22.4034903270076	0.75	1	late	em_task_post	n/a	n/a	n/a	n/a	n/a
28.0	1.5	2	late	stimulus	n/a	127.5	n/a	n/a	n/a
39.5	0.5	2	late	dm_task_pre	n/a	n/a	n/a	n/a	n/a
40.0	0.708372309003607	2	late	dm_task	0.708372309003607	n/a	4.0	-1.0	n/a
40.70837230900361	0.75	2	late	dm_task_post	n/a	n/a	n/a	n/a	n/a
45.5	0.5	2	late	em_task_pre	n/a	n/a	n/a	n/a	n/a
46.0	3.944500759011099	2	late	em_task	n/a	n/a	n/a	n/a	121.866570620433
49.9445007590111	0.75	2	late	em_task_post	n/a	n/a	n/a	n/a	n/a
56.0	1.5	3	early	stimulus	n/a	22.5	n/a	n/a	n/a
61.5	0.5	3	early	dm_task_pre	n/a	n/a	n/a	n/a	n/a
62.0	0.798777200005134	3	early	dm_task	0.798777200005134	n/a	0.0	-1.0	n/a
62.798777200005134	0.75	3	early	dm_task_post	n/a	n/a	n/a	n/a	n/a
73.5	0.5	3	early	em_task_pre	n/a	n/a	n/a	n/a	n/a
74.0	3.7045610950007983	3	early	em_task	n/a	n/a	n/a	n/a	26.3063067102826
77.7045610950008	0.75	3	early	em_task_post	n/a	n/a	n/a	n/a	n/a
84.0	1.5	4	early	stimulus	n/a	30.0	n/a	n/a	n/a
89.5	0.5	4	early	dm_task_pre	n/a	n/a	n/a	n/a	n/a
90.0	1.5	4	early	dm_task	1.5914277510019	n/a	-4.0	1.0	n/a
91.5	0.75	4	early	dm_task_post	n/a	n/a	n/a	n/a	n/a
101.5	0.5	4	early	em_task_pre	n/a	n/a	n/a	n/a	n/a
102.0	2.1133239000045982	4	early	em_task	n/a	n/a	n/a	n/a	25.8966160566063
104.1133239000046	0.75	4	early	em_task_post	n/a	n/a	n/a	n/a	n/a
112.0	1.5	5	early	stimulus	n/a	0.0	n/a	n/a	n/a
117.5	0.5	5	early	dm_task_pre	n/a	n/a	n/a	n/a	n/a
118.0	0.616951978998259	5	early	dm_task	0.616951978998259	n/a	0.0	-1.0	n/a
118.61695197899826	0.75	5	early	dm_task_post	n/a	n/a	n/a	n/a	n/a
129.5	0.5	5	early	em_task_pre	n/a	n/a	n/a	n/a	n/a
130.0	2.8725002510037	5	early	em_task	n/a	n/a	n/a	n/a	166.975918175846
132.87250025100371	0.75	5	early	em_task_post	n/a	n/a	n/a	n/a	n/a
140.0	1.5	6	early	stimulus	n/a	67.5	n/a	n/a	n/a
145.5	0.5	6	early	dm_task_pre	n/a	n/a	n/a	n/a	n/a
146.0	0.70900924000307	6	early	dm_task	0.70900924000307	n/a	0.0	-1.0	n/a
146.70900924000307	0.75	6	early	dm_task_post	n/a	n/a	n/a	n/a	n/a
157.5	0.5	6	early	em_task_pre	n/a	n/a	n/a	n/a	n/a
158.0	3.5811161480087	6	early	em_task	n/a	n/a	n/a	n/a	63.0187684627341
161.5811161480087	0.75	6	early	em_task_post	n/a	n/a	n/a	n/a	n/a
168.0	1.5	7	early	stimulus	n/a	7.5	n/a	n/a	n/a
173.5	0.5	7	early	dm_task_pre	n/a	n/a	n/a	n/a	n/a
174.0	0.585259635001421	7	early	dm_task	0.585259635001421	n/a	-21.0	1.0	n/a
174.58525963500142	0.75	7	early	dm_task_post	n/a	n/a	n/a	n/a	n/a
185.5	0.5	7	early	em_task_pre	n/a	n/a	n/a	n/a	n/a
186.0	2.6560046900121996	7	early	em_task	n/a	n/a	n/a	n/a	12.0965054890209
188.6560046900122	0.75	7	early	em_task_post	n/a	n/a	n/a	n/a	n/a
196.0	1.5	8	late	stimulus	n/a	52.5	n/a	n/a	n/a
207.5	0.5	8	late	dm_task_pre	n/a	n/a	n/a	n/a	n/a
208.0	0.546457721007755	8	late	dm_task	0.546457721007755	n/a	-21.0	1.0	n/a
208.54645772100776	0.75	8	late	dm_task_post	n/a	n/a	n/a	n/a	n/a
213.5	0.5	8	late	em_task_pre	n/a	n/a	n/a	n/a	n/a
214.0	2.466969364002601	8	late	em_task	n/a	n/a	n/a	n/a	58.0696538991485
216.4669693640026	0.75	8	late	em_task_post	n/a	n/a	n/a	n/a	n/a
224.0	1.5	9	early	stimulus	n/a	105.0	n/a	n/a	n/a
229.5	0.5	9	early	dm_task_pre	n/a	n/a	n/a	n/a	n/a
230.0	0.736580064010923	9	early	dm_task	0.736580064010923	n/a	-4.0	1.0	n/a
230.73658006401092	0.75	9	early	dm_task_post	n/a	n/a	n/a	n/a	n/a
241.5	0.5	9	early	em_task_pre	n/a	n/a	n/a	n/a	n/a
242.0	2.640726912009999	9	early	em_task	n/a	n/a	n/a	n/a	120.357250191618
244.64072691201	0.75	9	early	em_task_post	n/a	n/a	n/a	n/a	n/a
252.0	1.5	10	late	stimulus	n/a	60.0	n/a	n/a	n/a
263.5	0.5	10	late	dm_task_pre	n/a	n/a	n/a	n/a	n/a
264.0	0.53216167500068	10	late	dm_task	0.53216167500068	n/a	4.0	-1.0	n/a
264.5321616750007	0.75	10	late	dm_task_post	n/a	n/a	n/a	n/a	n/a
269.5	0.5	10	late	em_task_pre	n/a	n/a	n/a	n/a	n/a
270.0	2.2344035610003985	10	late	em_task	n/a	n/a	n/a	n/a	57.0966359363573
272.2344035610004	0.75	10	late	em_task_post	n/a	n/a	n/a	n/a	n/a
280.0	1.5	11	early	stimulus	n/a	112.5	n/a	n/a	n/a
285.5	0.5	11	early	dm_task_pre	n/a	n/a	n/a	n/a	n/a
286.0	0.722496005007997	11	early	dm_task	0.722496005007997	n/a	21.0	-1.0	n/a
286.722496005008	0.75	11	early	dm_task_post	n/a	n/a	n/a	n/a	n/a
297.5	0.5	11	early	em_task_pre	n/a	n/a	n/a	n/a	n/a
298.0	1.4603108590089988	11	early	em_task	n/a	n/a	n/a	n/a	108.175398541031
299.460310859009	0.75	11	early	em_task_post	n/a	n/a	n/a	n/a	n/a
308.0	1.5	12	early	stimulus	n/a	45.0	n/a	n/a	n/a
313.5	0.5	12	early	dm_task_pre	n/a	n/a	n/a	n/a	n/a
314.0	1.1310840560036	12	early	dm_task	1.1310840560036	n/a	-4.0	1.0	n/a
315.1310840560036	0.75	12	early	dm_task_post	n/a	n/a	n/a	n/a	n/a
325.5	0.5	12	early	em_task_pre	n/a	n/a	n/a	n/a	n/a
326.0	3.0187591389986004	12	early	em_task	n/a	n/a	n/a	n/a	44.6321419975649
329.0187591389986	0.75	12	early	em_task_post	n/a	n/a	n/a	n/a	n/a
