onset	duration	trial	trial_type	event_type	response_time	value_stimulus	value_reference	response_decision	response_estimation
0.0	1.5	1	late	stimulus	n/a	157.5	n/a	n/a	n/a
11.5	0.5	1	late	dm_task_pre	n/a	n/a	n/a	n/a	n/a
12.0	1.5	1	late	dm_task	1.56557088000409	n/a	-4.0	-1.0	n/a
13.5	0.75	1	late	dm_task_post	n/a	n/a	n/a	n/a	n/a
17.5	0.5	1	late	em_task_pre	n/a	n/a	n/a	n/a	n/a
18.0	2.1471301450001015	1	late	em_task	n/a	n/a	n/a	n/a	147.535090981129
20.1471301450001	0.75	1	late	em_task_post	n/a	n/a	n/a	n/a	n/a
28.0	1.5	2	late	stimulus	n/a	37.5	n/a	n/a	n/a
39.5	0.5	2	late	dm_task_pre	n/a	n/a	n/a	n/a	n/a
40.0	0.622968192998087	2	late	dm_task	0.622968192998087	n/a	-4.0	-1.0	n/a
40.62296819299809	0.75	2	late	dm_task_post	n/a	n/a	n/a	n/a	n/a
45.5	0.5	2	late	em_task_pre	n/a	n/a	n/a	n/a	n/a
46.0	4.435857962998899	2	late	em_task	n/a	n/a	n/a	n/a	28.9843724808364
50.435857962998895	0.75	2	late	em_task_post	n/a	n/a	n/a	n/a	n/a
56.0	1.5	3	early	stimulus	n/a	60.0	n/a	n/a	n/a
61.5	0.5	3	early	dm_task_pre	n/a	n/a	n/a	n/a	n/a
62.0	1.29751963500166	3	early	dm_task	1.29751963500166	n/a	-4.0	-1.0	n/a
63.29751963500166	0.75	3	early	dm_task_post	n/a	n/a	n/a	n/a	n/a
73.5	0.5	3	early	em_task_pre	n/a	n/a	n/a	n/a	n/a
74.0	1.9091132840040004	3	early	em_task	n/a	n/a	n/a	n/a	55.4072346927925
75.90911328400401	0.75	3	early	em_task_post	n/a	n/a	n/a	n/a	n/a
84.0	1.5	4	early	stimulus	n/a	75.0	n/a	n/a	n/a
89.5	0.5	4	early	dm_task_pre	n/a	n/a	n/a	n/a	n/a
90.0	0.687610915003461	4	early	dm_task	0.687610915003461	n/a	0.0	-1.0	n/a
90.68761091500346	0.75	4	early	dm_task_post	n/a	n/a	n/a	n/a	n/a
101.5	0.5	4	early	em_task_pre	n/a	n/a	n/a	n/a	n/a
102.0	2.015859666004001	4	early	em_task	n/a	n/a	n/a	n/a	62.6484855990872
104.015859666004	0.75	4	early	em_task_post	n/a	n/a	n/a	n/a	n/a
112.0	1.5	5	late	stimulus	n/a	0.0	n/a	n/a	n/a
123.5	0.5	5	late	dm_task_pre	n/a	n/a	n/a	n/a	n/a
124.0	0.574910438001098	5	late	dm_task	0.574910438001098	n/a	4.0	-1.0	n/a
124.5749104380011	0.75	5	late	dm_task_post	n/a	n/a	n/a	n/a	n/a
129.5	0.5	5	late	em_task_pre	n/a	n/a	n/a	n/a	n/a
130.0	3.3888893650001	5	late	em_task	n/a	n/a	n/a	n/a	177.74185066869
133.3888893650001	0.75	5	late	em_task_post	n/a	n/a	n/a	n/a	n/a
140.0	1.5	6	early	stimulus	n/a	7.5	n/a	n/a	n/a
145.5	0.5	6	early	dm_task_pre	n/a	n/a	n/a	n/a	n/a
146.0	0.649262259998068	6	early	dm_task	0.649262259998068	n/a	21.0	-1.0	n/a
146.64926225999807	0.75	6	early	dm_task_post	n/a	n/a	n/a	n/a	n/a
157.5	0.5	6	early	em_task_pre	n/a	n/a	n/a	n/a	n/a
158.0	3.8781646190037016	6	early	em_task	n/a	n/a	n/a	n/a	15.2836025459591
161.8781646190037	0.75	6	early	em_task_post	n/a	n/a	n/a	n/a	n/a
168.0	1.5	7	late	stimulus	n/a	105.0	n/a	n/a	n/a
179.5	0.5	7	late	dm_task_pre	n/a	n/a	n/a	n/a	n/a
180.0	0.771538808003243	7	late	dm_task	0.771538808003243	n/a	-4.0	1.0	n/a
180.77153880800324	0.75	7	late	dm_task_post	n/a	n/a	n/a	n/a	n/a
185.5	0.5	7	late	em_task_pre	n/a	n/a	n/a	n/a	n/a
186.0	2.5189017610028017	7	late	em_task	n/a	n/a	n/a	n/a	118.795542984787
188.5189017610028	0.75	7	late	em_task_post	n/a	n/a	n/a	n/a	n/a
196.0	1.5	8	early	stimulus	n/a	135.0	n/a	n/a	n/a
201.5	0.5	8	early	dm_task_pre	n/a	n/a	n/a	n/a	n/a
202.0	1.34747303999757	8	early	dm_task	1.34747303999757	n/a	0.0	1.0	n/a
203.34747303999757	0.75	8	early	dm_task_post	n/a	n/a	n/a	n/a	n/a
213.5	0.5	8	early	em_task_pre	n/a	n/a	n/a	n/a	n/a
214.0	4.474918118001401	8	early	em_task	n/a	n/a	n/a	n/a	135.402564455652
218.4749181180014	0.75	8	early	em_task_post	n/a	n/a	n/a	n/a	n/a
224.0	1.5	9	early	stimulus	n/a	52.5	n/a	n/a	n/a
229.5	0.5	9	early	dm_task_pre	n/a	n/a	n/a	n/a	n/a
230.0	0.75229519700224	9	early	dm_task	0.75229519700224	n/a	21.0	-1.0	n/a
230.75229519700224	0.75	9	early	dm_task_post	n/a	n/a	n/a	n/a	n/a
241.5	0.5	9	early	em_task_pre	n/a	n/a	n/a	n/a	n/a
242.0	3.0485206029988987	9	early	em_task	n/a	n/a	n/a	n/a	49.462838260457
245.0485206029989	0.75	9	early	em_task_post	n/a	n/a	n/a	n/a	n/a
252.0	1.5	10	early	stimulus	n/a	22.5	n/a	n/a	n/a
257.5	0.5	10	early	dm_task_pre	n/a	n/a	n/a	n/a	n/a
258.0	0.75867980899784	10	early	dm_task	0.75867980899784	n/a	0.0	1.0	n/a
258.75867980899784	0.75	10	early	dm_task_post	n/a	n/a	n/a	n/a	n/a
269.5	0.5	10	early	em_task_pre	n/a	n/a	n/a	n/a	n/a
270.0	3.0218498519971	10	early	em_task	n/a	n/a	n/a	n/a	26.9614257261698
273.0218498519971	0.75	10	early	em_task_post	n/a	n/a	n/a	n/a	n/a
280.0	1.5	11	early	stimulus	n/a	165.0	n/a	n/a	n/a
285.5	0.5	11	early	dm_task_pre	n/a	n/a	n/a	n/a	n/a
286.0	0.699065473003429	11	early	dm_task	0.699065473003429	n/a	0.0	-1.0	n/a
286.69906547300343	0.75	11	early	dm_task_post	n/a	n/a	n/a	n/a	n/a
297.5	0.5	11	early	em_task_pre	n/a	n/a	n/a	n/a	n/a
298.0	1.828548600999099	11	early	em_task	n/a	n/a	n/a	n/a	155.55433732163
299.8285486009991	0.75	11	early	em_task_post	n/a	n/a	n/a	n/a	n/a
308.0	1.5	12	late	stimulus	n/a	142.5	n/a	n/a	n/a
319.5	0.5	12	late	dm_task_pre	n/a	n/a	n/a	n/a	n/a
320.0	0.703263135997986	12	late	dm_task	0.703263135997986	n/a	-21.0	1.0	n/a
320.703263135998	0.75	12	late	dm_task_post	n/a	n/a	n/a	n/a	n/a
325.5	0.5	12	late	em_task_pre	n/a	n/a	n/a	n/a	n/a
326.0	3.168102632000199	12	late	em_task	n/a	n/a	n/a	n/a	136.370640871642
329.1681026320002	0.75	12	late	em_task_post	n/a	n/a	n/a	n/a	n/a
