onset	duration	trial	trial_type	event_type	response_time	value_stimulus	value_reference	response_decision	response_estimation
0.0	1.5	1	early	stimulus	n/a	127.5	n/a	n/a	n/a
5.5	0.5	1	early	dm_task_pre	n/a	n/a	n/a	n/a	n/a
6.0	0.662262827999939	1	early	dm_task	0.662262827999939	n/a	21.0	-1.0	n/a
6.662262827999939	0.75	1	early	dm_task_post	n/a	n/a	n/a	n/a	n/a
17.5	0.5	1	early	em_task_pre	n/a	n/a	n/a	n/a	n/a
18.0	3.356582079999999	1	early	em_task	n/a	n/a	n/a	n/a	133.981234897495
21.35658208	0.75	1	early	em_task_post	n/a	n/a	n/a	n/a	n/a
28.0	1.5	2	late	stimulus	n/a	165.0	n/a	n/a	n/a
39.5	0.5	2	late	dm_task_pre	n/a	n/a	n/a	n/a	n/a
40.0	0.718260631000021	2	late	dm_task	0.718260631000021	n/a	-4.0	1.0	n/a
40.71826063100002	0.75	2	late	dm_task_post	n/a	n/a	n/a	n/a	n/a
45.5	0.5	2	late	em_task_pre	n/a	n/a	n/a	n/a	n/a
46.0	3.9972865789999013	2	late	em_task	n/a	n/a	n/a	n/a	135.99765005186
49.997286578999905	0.75	2	late	em_task_post	n/a	n/a	n/a	n/a	n/a
56.0	1.5	3	early	stimulus	n/a	22.5	n/a	n/a	n/a
61.5	0.5	3	early	dm_task_pre	n/a	n/a	n/a	n/a	n/a
62.0	0.727703657000006	3	early	dm_task	0.727703657000006	n/a	-21.0	1.0	n/a
62.727703657000006	0.75	3	early	dm_task_post	n/a	n/a	n/a	n/a	n/a
73.5	0.5	3	early	em_task_pre	n/a	n/a	n/a	n/a	n/a
74.0	2.3056307109998997	3	early	em_task	n/a	n/a	n/a	n/a	33.0716899555261
76.3056307109999	0.75	3	early	em_task_post	n/a	n/a	n/a	n/a	n/a
84.0	1.5	4	late	stimulus	n/a	67.5	n/a	n/a	n/a
95.5	0.5	4	late	dm_task_pre	n/a	n/a	n/a	n/a	n/a
96.0	0.817130500999951	4	late	dm_task	0.817130500999951	n/a	-4.0	-1.0	n/a
96.81713050099995	0.75	4	late	dm_task_post	n/a	n/a	n/a	n/a	n/a
101.5	0.5	4	late	em_task_pre	n/a	n/a	n/a	n/a	n/a
102.0	4.4466273140000006	4	late	em_task	n/a	n/a	n/a	n/a	37.3264310938668
106.446627314	0.75	4	late	em_task_post	n/a	n/a	n/a	n/a	n/a
112.0	1.5	5	early	stimulus	n/a	75.0	n/a	n/a	n/a
117.5	0.5	5	early	dm_task_pre	n/a	n/a	n/a	n/a	n/a
118.0	1.24349277900001	5	early	dm_task	1.24349277900001	n/a	-4.0	-1.0	n/a
119.24349277900001	0.75	5	early	dm_task_post	n/a	n/a	n/a	n/a	n/a
129.5	0.5	5	early	em_task_pre	n/a	n/a	n/a	n/a	n/a
130.0	2.3215934899998985	5	early	em_task	n/a	n/a	n/a	n/a	63.2433838110821
132.32159348999988	0.75	5	early	em_task_post	n/a	n/a	n/a	n/a	n/a
140.0	1.5	6	late	stimulus	n/a	172.5	n/a	n/a	n/a
151.5	0.5	6	late	dm_task_pre	n/a	n/a	n/a	n/a	n/a
152.0	1.06639825100001	6	late	dm_task	1.06639825100001	n/a	21.0	-1.0	n/a
153.066398251	0.75	6	late	dm_task_post	n/a	n/a	n/a	n/a	n/a
157.5	0.5	6	late	em_task_pre	n/a	n/a	n/a	n/a	n/a
158.0	3.3961014839998995	6	late	em_task	n/a	n/a	n/a	n/a	147.662820685554
161.3961014839999	0.75	6	late	em_task_post	n/a	n/a	n/a	n/a	n/a
168.0	1.5	7	late	stimulus	n/a	112.5	n/a	n/a	n/a
179.5	0.5	7	late	dm_task_pre	n/a	n/a	n/a	n/a	n/a
180.0	0.505162141000028	7	late	dm_task	0.505162141000028	n/a	0.0	1.0	n/a
180.50516214100003	0.75	7	late	dm_task_post	n/a	n/a	n/a	n/a	n/a
185.5	0.5	7	late	em_task_pre	n/a	n/a	n/a	n/a	n/a
186.0	4.0528274039999985	7	late	em_task	n/a	n/a	n/a	n/a	119.261325941109
190.052827404	0.75	7	late	em_task_post	n/a	n/a	n/a	n/a	n/a
196.0	1.5	8	early	stimulus	n/a	82.5	n/a	n/a	n/a
201.5	0.5	8	early	dm_task_pre	n/a	n/a	n/a	n/a	n/a
202.0	0.948114171999919	8	early	dm_task	0.948114171999919	n/a	0.0	1.0	n/a
202.94811417199992	0.75	8	early	dm_task_post	n/a	n/a	n/a	n/a	n/a
213.5	0.5	8	early	em_task_pre	n/a	n/a	n/a	n/a	n/a
214.0	2.928278164999899	8	early	em_task	n/a	n/a	n/a	n/a	99.3342412909676
216.9282781649999	0.75	8	early	em_task_post	n/a	n/a	n/a	n/a	n/a
224.0	1.5	9	early	stimulus	n/a	97.5	n/a	n/a	n/a
229.5	0.5	9	early	dm_task_pre	n/a	n/a	n/a	n/a	n/a
230.0	0.825293520999935	9	early	dm_task	0.825293520999935	n/a	-21.0	1.0	n/a
230.82529352099994	0.75	9	early	dm_task_post	n/a	n/a	n/a	n/a	n/a
241.5	0.5	9	early	em_task_pre	n/a	n/a	n/a	n/a	n/a
242.0	2.803164003999999	9	early	em_task	n/a	n/a	n/a	n/a	123.043091578688
244.803164004	0.75	9	early	em_task_post	n/a	n/a	n/a	n/a	n/a
252.0	1.5	10	late	stimulus	n/a	15.0	n/a	n/a	n/a
263.5	0.5	10	late	dm_task_pre	n/a	n/a	n/a	n/a	n/a
264.0	0.248325293999983	10	late	dm_task	0.248325293999983	n/a	4.0	-1.0	n/a
264.248325294	0.75	10	late	dm_task_post	n/a	n/a	n/a	n/a	n/a
269.5	0.5	10	late	em_task_pre	n/a	n/a	n/a	n/a	n/a
270.0	3.377593428000001	10	late	em_task	n/a	n/a	n/a	n/a	18.1956060615928
273.377593428	0.75	10	late	em_task_post	n/a	n/a	n/a	n/a	n/a
280.0	1.5	11	early	stimulus	n/a	37.5	n/a	n/a	n/a
285.5	0.5	11	early	dm_task_pre	n/a	n/a	n/a	n/a	n/a
286.0	1.12440110699993	11	early	dm_task	1.12440110699993	n/a	0.0	-1.0	n/a
287.1244011069999	0.75	11	early	dm_task_post	n/a	n/a	n/a	n/a	n/a
297.5	0.5	11	early	em_task_pre	n/a	n/a	n/a	n/a	n/a
298.0	4.050646519000001	11	early	em_task	n/a	n/a	n/a	n/a	31.1482097864933
302.050646519	0.75	11	early	em_task_post	n/a	n/a	n/a	n/a	n/a
308.0	1.5	12	late	stimulus	n/a	52.5	n/a	n/a	n/a
319.5	0.5	12	late	dm_task_pre	n/a	n/a	n/a	n/a	n/a
320.0	0.480600663000018	12	late	dm_task	0.480600663000018	n/a	4.0	-1.0	n/a
320.480600663	0.75	12	late	dm_task_post	n/a	n/a	n/a	n/a	n/a
325.5	0.5	12	late	em_task_pre	n/a	n/a	n/a	n/a	n/a
326.0	2.327104044999899	12	late	em_task	n/a	n/a	n/a	n/a	44.0293108993775
328.3271040449999	0.75	12	late	em_task_post	n/a	n/a	n/a	n/a	n/a
