onset	duration	trial	trial_type	event_type	response_time	value_stimulus	value_reference	response_decision	response_estimation
0.0	1.5	1	early	stimulus	n/a	127.5	n/a	n/a	n/a
5.5	0.5	1	early	dm_task_pre	n/a	n/a	n/a	n/a	n/a
6.0	0.551483426999766	1	early	dm_task	0.551483426999766	n/a	0.0	1.0	n/a
6.551483426999766	0.75	1	early	dm_task_post	n/a	n/a	n/a	n/a	n/a
17.5	0.5	1	early	em_task_pre	n/a	n/a	n/a	n/a	n/a
18.0	2.6090100509999985	1	early	em_task	n/a	n/a	n/a	n/a	119.507232523815
20.609010051	0.75	1	early	em_task_post	n/a	n/a	n/a	n/a	n/a
28.0	1.5	2	early	stimulus	n/a	45.0	n/a	n/a	n/a
33.5	0.5	2	early	dm_task_pre	n/a	n/a	n/a	n/a	n/a
34.0	0.623046417999831	2	early	dm_task	0.623046417999831	n/a	-21.0	1.0	n/a
34.62304641799983	0.75	2	early	dm_task_post	n/a	n/a	n/a	n/a	n/a
45.5	0.5	2	early	em_task_pre	n/a	n/a	n/a	n/a	n/a
46.0	0.8048579410001011	2	early	em_task	n/a	n/a	n/a	n/a	96.2540079429199
46.8048579410001	0.75	2	early	em_task_post	n/a	n/a	n/a	n/a	n/a
56.0	1.5	3	late	stimulus	n/a	0.0	n/a	n/a	n/a
67.5	0.5	3	late	dm_task_pre	n/a	n/a	n/a	n/a	n/a
68.0	0.495640263000041	3	late	dm_task	0.495640263000041	n/a	-4.0	1.0	n/a
68.49564026300004	0.75	3	late	dm_task_post	n/a	n/a	n/a	n/a	n/a
73.5	0.5	3	late	em_task_pre	n/a	n/a	n/a	n/a	n/a
74.0	3.2415325100000985	3	late	em_task	n/a	n/a	n/a	n/a	153.768903119454
77.2415325100001	0.75	3	late	em_task_post	n/a	n/a	n/a	n/a	n/a
84.0	1.5	4	late	stimulus	n/a	135.0	n/a	n/a	n/a
95.5	0.5	4	late	dm_task_pre	n/a	n/a	n/a	n/a	n/a
96.0	0.83659423600011	4	late	dm_task	0.83659423600011	n/a	0.0	1.0	n/a
96.83659423600011	0.75	4	late	dm_task_post	n/a	n/a	n/a	n/a	n/a
101.5	0.5	4	late	em_task_pre	n/a	n/a	n/a	n/a	n/a
102.0	1.3334601110000008	4	late	em_task	n/a	n/a	n/a	n/a	133.872729267326
103.333460111	0.75	4	late	em_task_post	n/a	n/a	n/a	n/a	n/a
112.0	1.5	5	early	stimulus	n/a	7.5	n/a	n/a	n/a
117.5	0.5	5	early	dm_task_pre	n/a	n/a	n/a	n/a	n/a
118.0	0.81345204299987	5	early	dm_task	0.81345204299987	n/a	0.0	1.0	n/a
118.81345204299987	0.75	5	early	dm_task_post	n/a	n/a	n/a	n/a	n/a
129.5	0.5	5	early	em_task_pre	n/a	n/a	n/a	n/a	n/a
130.0	3.8571495099999993	5	early	em_task	n/a	n/a	n/a	n/a	179.129373484997
133.85714951	0.75	5	early	em_task_post	n/a	n/a	n/a	n/a	n/a
140.0	1.5	6	early	stimulus	n/a	112.5	n/a	n/a	n/a
145.5	0.5	6	early	dm_task_pre	n/a	n/a	n/a	n/a	n/a
146.0	0.568601805000071	6	early	dm_task	0.568601805000071	n/a	-21.0	1.0	n/a
146.56860180500007	0.75	6	early	dm_task_post	n/a	n/a	n/a	n/a	n/a
157.5	0.5	6	early	em_task_pre	n/a	n/a	n/a	n/a	n/a
158.0	4.498042416999901	6	early	em_task	n/a	n/a	n/a	n/a	135.730426566094
162.4980424169999	0.75	6	early	em_task_post	n/a	n/a	n/a	n/a	n/a
168.0	1.5	7	early	stimulus	n/a	67.5	n/a	n/a	n/a
173.5	0.5	7	early	dm_task_pre	n/a	n/a	n/a	n/a	n/a
174.0	0.529109335000157	7	early	dm_task	0.529109335000157	n/a	21.0	-1.0	n/a
174.52910933500016	0.75	7	early	dm_task_post	n/a	n/a	n/a	n/a	n/a
185.5	0.5	7	early	em_task_pre	n/a	n/a	n/a	n/a	n/a
186.0	2.156754868	7	early	em_task	n/a	n/a	n/a	n/a	44.7493361956362
188.156754868	0.75	7	early	em_task_post	n/a	n/a	n/a	n/a	n/a
196.0	1.5	8	late	stimulus	n/a	120.0	n/a	n/a	n/a
207.5	0.5	8	late	dm_task_pre	n/a	n/a	n/a	n/a	n/a
208.0	0.665770656999939	8	late	dm_task	0.665770656999939	n/a	-4.0	-1.0	n/a
208.66577065699994	0.75	8	late	dm_task_post	n/a	n/a	n/a	n/a	n/a
213.5	0.5	8	late	em_task_pre	n/a	n/a	n/a	n/a	n/a
214.0	4.145836323999902	8	late	em_task	n/a	n/a	n/a	n/a	34.5113118324857
218.1458363239999	0.75	8	late	em_task_post	n/a	n/a	n/a	n/a	n/a
224.0	1.5	9	late	stimulus	n/a	22.5	n/a	n/a	n/a
235.5	0.5	9	late	dm_task_pre	n/a	n/a	n/a	n/a	n/a
236.0	0.590413201000047	9	late	dm_task	0.590413201000047	n/a	-21.0	1.0	n/a
236.59041320100005	0.75	9	late	dm_task_post	n/a	n/a	n/a	n/a	n/a
241.5	0.5	9	late	em_task_pre	n/a	n/a	n/a	n/a	n/a
242.0	3.972127417000099	9	late	em_task	n/a	n/a	n/a	n/a	29.4406900882366
245.9721274170001	0.75	9	late	em_task_post	n/a	n/a	n/a	n/a	n/a
252.0	1.5	10	early	stimulus	n/a	37.5	n/a	n/a	n/a
257.5	0.5	10	early	dm_task_pre	n/a	n/a	n/a	n/a	n/a
258.0	0.683492104999914	10	early	dm_task	0.683492104999914	n/a	21.0	-1.0	n/a
258.6834921049999	0.75	10	early	dm_task_post	n/a	n/a	n/a	n/a	n/a
269.5	0.5	10	early	em_task_pre	n/a	n/a	n/a	n/a	n/a
270.0	3.3469408609999007	10	early	em_task	n/a	n/a	n/a	n/a	40.1367952277999
273.3469408609999	0.75	10	early	em_task_post	n/a	n/a	n/a	n/a	n/a
280.0	1.5	11	late	stimulus	n/a	82.5	n/a	n/a	n/a
291.5	0.5	11	late	dm_task_pre	n/a	n/a	n/a	n/a	n/a
292.0	0.656234299000062	11	late	dm_task	0.656234299000062	n/a	-21.0	1.0	n/a
292.65623429900006	0.75	11	late	dm_task_post	n/a	n/a	n/a	n/a	n/a
297.5	0.5	11	late	em_task_pre	n/a	n/a	n/a	n/a	n/a
298.0	2.222194808000001	11	late	em_task	n/a	n/a	n/a	n/a	63.2705655833813
300.222194808	0.75	11	late	em_task_post	n/a	n/a	n/a	n/a	n/a
308.0	1.5	12	late	stimulus	n/a	15.0	n/a	n/a	n/a
319.5	0.5	12	late	dm_task_pre	n/a	n/a	n/a	n/a	n/a
320.0	0.800298102999932	12	late	dm_task	0.800298102999932	n/a	0.0	-1.0	n/a
320.80029810299993	0.75	12	late	dm_task_post	n/a	n/a	n/a	n/a	n/a
325.5	0.5	12	late	em_task_pre	n/a	n/a	n/a	n/a	n/a
326.0	3.6623495089997995	12	late	em_task	n/a	n/a	n/a	n/a	20.0421807223195
329.6623495089998	0.75	12	late	em_task_post	n/a	n/a	n/a	n/a	n/a
