onset	duration	trial	trial_type	event_type	response_time	value_stimulus	value_reference	response_decision	response_estimation
0.0	1.5	1	early	stimulus	n/a	120.0	n/a	n/a	n/a
5.5	0.5	1	early	dm_task_pre	n/a	n/a	n/a	n/a	n/a
6.0	0.556327990023419	1	early	dm_task	0.556327990023419	n/a	21.0	-1.0	n/a
6.556327990023419	0.75	1	early	dm_task_post	n/a	n/a	n/a	n/a	n/a
17.5	0.5	1	early	em_task_pre	n/a	n/a	n/a	n/a	n/a
18.0	1.8180439779535007	1	early	em_task	n/a	n/a	n/a	n/a	128.337136286858
19.8180439779535	0.75	1	early	em_task_post	n/a	n/a	n/a	n/a	n/a
28.0	1.5	2	late	stimulus	n/a	112.5	n/a	n/a	n/a
39.5	0.5	2	late	dm_task_pre	n/a	n/a	n/a	n/a	n/a
40.0	0.576252432074398	2	late	dm_task	0.576252432074398	n/a	-4.0	1.0	n/a
40.5762524320744	0.75	2	late	dm_task_post	n/a	n/a	n/a	n/a	n/a
45.5	0.5	2	late	em_task_pre	n/a	n/a	n/a	n/a	n/a
46.0	3.156925111077701	2	late	em_task	n/a	n/a	n/a	n/a	122.398898273224
49.1569251110777	0.75	2	late	em_task_post	n/a	n/a	n/a	n/a	n/a
56.0	1.5	3	late	stimulus	n/a	135.0	n/a	n/a	n/a
67.5	0.5	3	late	dm_task_pre	n/a	n/a	n/a	n/a	n/a
68.0	0.682337810052559	3	late	dm_task	0.682337810052559	n/a	-4.0	1.0	n/a
68.68233781005256	0.75	3	late	dm_task_post	n/a	n/a	n/a	n/a	n/a
73.5	0.5	3	late	em_task_pre	n/a	n/a	n/a	n/a	n/a
74.0	3.1951227369718005	3	late	em_task	n/a	n/a	n/a	n/a	139.830944843155
77.1951227369718	0.75	3	late	em_task_post	n/a	n/a	n/a	n/a	n/a
84.0	1.5	4	early	stimulus	n/a	45.0	n/a	n/a	n/a
89.5	0.5	4	early	dm_task_pre	n/a	n/a	n/a	n/a	n/a
90.0	0.839381030993536	4	early	dm_task	0.839381030993536	n/a	-4.0	-1.0	n/a
90.83938103099354	0.75	4	early	dm_task_post	n/a	n/a	n/a	n/a	n/a
101.5	0.5	4	early	em_task_pre	n/a	n/a	n/a	n/a	n/a
102.0	2.969709385884901	4	early	em_task	n/a	n/a	n/a	n/a	29.744559741612
104.9697093858849	0.75	4	early	em_task_post	n/a	n/a	n/a	n/a	n/a
112.0	1.5	5	early	stimulus	n/a	82.5	n/a	n/a	n/a
117.5	0.5	5	early	dm_task_pre	n/a	n/a	n/a	n/a	n/a
118.0	0.61440028087236	5	early	dm_task	0.61440028087236	n/a	0.0	-1.0	n/a
118.61440028087236	0.75	5	early	dm_task_post	n/a	n/a	n/a	n/a	n/a
129.5	0.5	5	early	em_task_pre	n/a	n/a	n/a	n/a	n/a
130.0	1.3590711960568989	5	early	em_task	n/a	n/a	n/a	n/a	69.3401192755464
131.3590711960569	0.75	5	early	em_task_post	n/a	n/a	n/a	n/a	n/a
140.0	1.5	6	late	stimulus	n/a	165.0	n/a	n/a	n/a
151.5	0.5	6	late	dm_task_pre	n/a	n/a	n/a	n/a	n/a
152.0	0.60102382209152	6	late	dm_task	0.60102382209152	n/a	21.0	-1.0	n/a
152.60102382209152	0.75	6	late	dm_task_post	n/a	n/a	n/a	n/a	n/a
157.5	0.5	6	late	em_task_pre	n/a	n/a	n/a	n/a	n/a
158.0	2.8146285680122993	6	late	em_task	n/a	n/a	n/a	n/a	150.605562959819
160.8146285680123	0.75	6	late	em_task_post	n/a	n/a	n/a	n/a	n/a
168.0	1.5	7	late	stimulus	n/a	15.0	n/a	n/a	n/a
179.5	0.5	7	late	dm_task_pre	n/a	n/a	n/a	n/a	n/a
180.0	0.859707741066813	7	late	dm_task	0.859707741066813	n/a	0.0	1.0	n/a
180.8597077410668	0.75	7	late	dm_task_post	n/a	n/a	n/a	n/a	n/a
185.5	0.5	7	late	em_task_pre	n/a	n/a	n/a	n/a	n/a
186.0	2.7569998109247997	7	late	em_task	n/a	n/a	n/a	n/a	22.3821793986245
188.7569998109248	0.75	7	late	em_task_post	n/a	n/a	n/a	n/a	n/a
196.0	1.5	8	late	stimulus	n/a	30.0	n/a	n/a	n/a
207.5	0.5	8	late	dm_task_pre	n/a	n/a	n/a	n/a	n/a
208.0	0.59817869705148	8	late	dm_task	0.59817869705148	n/a	21.0	-1.0	n/a
208.59817869705148	0.75	8	late	dm_task_post	n/a	n/a	n/a	n/a	n/a
213.5	0.5	8	late	em_task_pre	n/a	n/a	n/a	n/a	n/a
214.0	1.8790950099938009	8	late	em_task	n/a	n/a	n/a	n/a	35.4929147517275
215.8790950099938	0.75	8	late	em_task_post	n/a	n/a	n/a	n/a	n/a
224.0	1.5	9	early	stimulus	n/a	60.0	n/a	n/a	n/a
229.5	0.5	9	early	dm_task_pre	n/a	n/a	n/a	n/a	n/a
230.0	0.623921050922945	9	early	dm_task	0.623921050922945	n/a	21.0	-1.0	n/a
230.62392105092295	0.75	9	early	dm_task_post	n/a	n/a	n/a	n/a	n/a
241.5	0.5	9	early	em_task_pre	n/a	n/a	n/a	n/a	n/a
242.0	1.1022353519220012	9	early	em_task	n/a	n/a	n/a	n/a	56.023368264752
243.102235351922	0.75	9	early	em_task_post	n/a	n/a	n/a	n/a	n/a
252.0	1.5	10	late	stimulus	n/a	150.0	n/a	n/a	n/a
263.5	0.5	10	late	dm_task_pre	n/a	n/a	n/a	n/a	n/a
264.0	0.509944458957762	10	late	dm_task	0.509944458957762	n/a	-21.0	1.0	n/a
264.50994445895776	0.75	10	late	dm_task_post	n/a	n/a	n/a	n/a	n/a
269.5	0.5	10	late	em_task_pre	n/a	n/a	n/a	n/a	n/a
270.0	2.6762751149944997	10	late	em_task	n/a	n/a	n/a	n/a	131.499799047547
272.6762751149945	0.75	10	late	em_task_post	n/a	n/a	n/a	n/a	n/a
280.0	1.5	11	early	stimulus	n/a	75.0	n/a	n/a	n/a
285.5	0.5	11	early	dm_task_pre	n/a	n/a	n/a	n/a	n/a
286.0	0.770603729877621	11	early	dm_task	0.770603729877621	n/a	-21.0	1.0	n/a
286.7706037298776	0.75	11	early	dm_task_post	n/a	n/a	n/a	n/a	n/a
297.5	0.5	11	early	em_task_pre	n/a	n/a	n/a	n/a	n/a
298.0	1.6993080929387006	11	early	em_task	n/a	n/a	n/a	n/a	68.6920820337553
299.6993080929387	0.75	11	early	em_task_post	n/a	n/a	n/a	n/a	n/a
308.0	1.5	12	early	stimulus	n/a	105.0	n/a	n/a	n/a
313.5	0.5	12	early	dm_task_pre	n/a	n/a	n/a	n/a	n/a
314.0	0.592341214884073	12	early	dm_task	0.592341214884073	n/a	4.0	1.0	n/a
314.5923412148841	0.75	12	early	dm_task_post	n/a	n/a	n/a	n/a	n/a
325.5	0.5	12	early	em_task_pre	n/a	n/a	n/a	n/a	n/a
326.0	3.1873095780611003	12	early	em_task	n/a	n/a	n/a	n/a	110.818230518103
329.1873095780611	0.75	12	early	em_task_post	n/a	n/a	n/a	n/a	n/a
