onset	duration	trial	trial_type	event_type	response_time	value_stimulus	value_reference	response_decision	response_estimation
0.0	1.5	1	early	stimulus	n/a	45.0	n/a	n/a	n/a
5.5	0.5	1	early	dm_task_pre	n/a	n/a	n/a	n/a	n/a
6.0	1.26113854901632	1	early	dm_task	1.26113854901632	n/a	4.0	1.0	n/a
7.26113854901632	0.75	1	early	dm_task_post	n/a	n/a	n/a	n/a	n/a
17.5	0.5	1	early	em_task_pre	n/a	n/a	n/a	n/a	n/a
18.0	3.8666081940172994	1	early	em_task	n/a	n/a	n/a	n/a	57.4171081528127
21.8666081940173	0.75	1	early	em_task_post	n/a	n/a	n/a	n/a	n/a
28.0	1.5	2	early	stimulus	n/a	172.5	n/a	n/a	n/a
33.5	0.5	2	early	dm_task_pre	n/a	n/a	n/a	n/a	n/a
34.0	1.21700443397276	2	early	dm_task	1.21700443397276	n/a	-4.0	1.0	n/a
35.21700443397276	0.75	2	early	dm_task_post	n/a	n/a	n/a	n/a	n/a
45.5	0.5	2	early	em_task_pre	n/a	n/a	n/a	n/a	n/a
46.0	2.721509793016601	2	early	em_task	n/a	n/a	n/a	n/a	168.319001953217
48.7215097930166	0.75	2	early	em_task_post	n/a	n/a	n/a	n/a	n/a
56.0	1.5	3	early	stimulus	n/a	120.0	n/a	n/a	n/a
61.5	0.5	3	early	dm_task_pre	n/a	n/a	n/a	n/a	n/a
62.0	0.844215116987471	3	early	dm_task	0.844215116987471	n/a	21.0	-1.0	n/a
62.84421511698747	0.75	3	early	dm_task_post	n/a	n/a	n/a	n/a	n/a
73.5	0.5	3	early	em_task_pre	n/a	n/a	n/a	n/a	n/a
74.0	2.9114828479942005	3	early	em_task	n/a	n/a	n/a	n/a	131.509618614507
76.9114828479942	0.75	3	early	em_task_post	n/a	n/a	n/a	n/a	n/a
84.0	1.5	4	early	stimulus	n/a	105.0	n/a	n/a	n/a
89.5	0.5	4	early	dm_task_pre	n/a	n/a	n/a	n/a	n/a
90.0	0.841266178002115	4	early	dm_task	0.841266178002115	n/a	21.0	-1.0	n/a
90.84126617800212	0.75	4	early	dm_task_post	n/a	n/a	n/a	n/a	n/a
101.5	0.5	4	early	em_task_pre	n/a	n/a	n/a	n/a	n/a
102.0	4.5	4	early	em_task	n/a	n/a	n/a	n/a	n/a
106.5	0.75	4	early	em_task_post	n/a	n/a	n/a	n/a	n/a
112.0	1.5	5	late	stimulus	n/a	22.5	n/a	n/a	n/a
123.5	0.5	5	late	dm_task_pre	n/a	n/a	n/a	n/a	n/a
124.0	0.874930900987238	5	late	dm_task	0.874930900987238	n/a	0.0	1.0	n/a
124.87493090098724	0.75	5	late	dm_task_post	n/a	n/a	n/a	n/a	n/a
129.5	0.5	5	late	em_task_pre	n/a	n/a	n/a	n/a	n/a
130.0	3.0475031950044986	5	late	em_task	n/a	n/a	n/a	n/a	36.1955283407432
133.0475031950045	0.75	5	late	em_task_post	n/a	n/a	n/a	n/a	n/a
140.0	1.5	6	late	stimulus	n/a	30.0	n/a	n/a	n/a
151.5	0.5	6	late	dm_task_pre	n/a	n/a	n/a	n/a	n/a
152.0	1.17249760497361	6	late	dm_task	1.17249760497361	n/a	0.0	-1.0	n/a
153.17249760497361	0.75	6	late	dm_task_post	n/a	n/a	n/a	n/a	n/a
157.5	0.5	6	late	em_task_pre	n/a	n/a	n/a	n/a	n/a
158.0	2.8330242040101012	6	late	em_task	n/a	n/a	n/a	n/a	33.3354996599575
160.8330242040101	0.75	6	late	em_task_post	n/a	n/a	n/a	n/a	n/a
168.0	1.5	7	early	stimulus	n/a	165.0	n/a	n/a	n/a
173.5	0.5	7	early	dm_task_pre	n/a	n/a	n/a	n/a	n/a
174.0	0.801599238009658	7	early	dm_task	0.801599238009658	n/a	-4.0	1.0	n/a
174.80159923800966	0.75	7	early	dm_task_post	n/a	n/a	n/a	n/a	n/a
185.5	0.5	7	early	em_task_pre	n/a	n/a	n/a	n/a	n/a
186.0	3.009753099002399	7	early	em_task	n/a	n/a	n/a	n/a	164.326593200791
189.0097530990024	0.75	7	early	em_task_post	n/a	n/a	n/a	n/a	n/a
196.0	1.5	8	late	stimulus	n/a	52.5	n/a	n/a	n/a
207.5	0.5	8	late	dm_task_pre	n/a	n/a	n/a	n/a	n/a
208.0	0.70971683197422	8	late	dm_task	0.70971683197422	n/a	21.0	-1.0	n/a
208.70971683197422	0.75	8	late	dm_task_post	n/a	n/a	n/a	n/a	n/a
213.5	0.5	8	late	em_task_pre	n/a	n/a	n/a	n/a	n/a
214.0	3.4789950770210005	8	late	em_task	n/a	n/a	n/a	n/a	55.187525323313
217.478995077021	0.75	8	late	em_task_post	n/a	n/a	n/a	n/a	n/a
224.0	1.5	9	early	stimulus	n/a	112.5	n/a	n/a	n/a
229.5	0.5	9	early	dm_task_pre	n/a	n/a	n/a	n/a	n/a
230.0	0.731522993999533	9	early	dm_task	0.731522993999533	n/a	21.0	-1.0	n/a
230.73152299399953	0.75	9	early	dm_task_post	n/a	n/a	n/a	n/a	n/a
241.5	0.5	9	early	em_task_pre	n/a	n/a	n/a	n/a	n/a
242.0	2.0856965209822995	9	early	em_task	n/a	n/a	n/a	n/a	116.954634774676
244.0856965209823	0.75	9	early	em_task_post	n/a	n/a	n/a	n/a	n/a
252.0	1.5	10	late	stimulus	n/a	150.0	n/a	n/a	n/a
263.5	0.5	10	late	dm_task_pre	n/a	n/a	n/a	n/a	n/a
264.0	1.41802455298603	10	late	dm_task	1.41802455298603	n/a	-4.0	-1.0	n/a
265.418024552986	0.75	10	late	dm_task_post	n/a	n/a	n/a	n/a	n/a
269.5	0.5	10	late	em_task_pre	n/a	n/a	n/a	n/a	n/a
270.0	3.109171102987599	10	late	em_task	n/a	n/a	n/a	n/a	133.045242005286
273.1091711029876	0.75	10	late	em_task_post	n/a	n/a	n/a	n/a	n/a
280.0	1.5	11	early	stimulus	n/a	97.5	n/a	n/a	n/a
285.5	0.5	11	early	dm_task_pre	n/a	n/a	n/a	n/a	n/a
286.0	0.741555586981121	11	early	dm_task	0.741555586981121	n/a	-4.0	1.0	n/a
286.7415555869811	0.75	11	early	dm_task_post	n/a	n/a	n/a	n/a	n/a
297.5	0.5	11	early	em_task_pre	n/a	n/a	n/a	n/a	n/a
298.0	4.118754794995802	11	early	em_task	n/a	n/a	n/a	n/a	110.932171366501
302.1187547949958	0.75	11	early	em_task_post	n/a	n/a	n/a	n/a	n/a
308.0	1.5	12	late	stimulus	n/a	15.0	n/a	n/a	n/a
319.5	0.5	12	late	dm_task_pre	n/a	n/a	n/a	n/a	n/a
320.0	1.08471247798298	12	late	dm_task	1.08471247798298	n/a	4.0	-1.0	n/a
321.084712477983	0.75	12	late	dm_task_post	n/a	n/a	n/a	n/a	n/a
325.5	0.5	12	late	em_task_pre	n/a	n/a	n/a	n/a	n/a
326.0	2.9899520599865	12	late	em_task	n/a	n/a	n/a	n/a	16.1950149782485
328.9899520599865	0.75	12	late	em_task_post	n/a	n/a	n/a	n/a	n/a
