onset	duration	trial	trial_type	event_type	response_time	value_stimulus	value_reference	response_decision	response_estimation
0.0	1.5	1	late	stimulus	n/a	127.5	n/a	n/a	n/a
11.5	0.5	1	late	dm_task_pre	n/a	n/a	n/a	n/a	n/a
12.0	0.579071414016653	1	late	dm_task	0.579071414016653	n/a	21.0	-1.0	n/a
12.579071414016653	0.75	1	late	dm_task_post	n/a	n/a	n/a	n/a	n/a
17.5	0.5	1	late	em_task_pre	n/a	n/a	n/a	n/a	n/a
18.0	2.8285404750204	1	late	em_task	n/a	n/a	n/a	n/a	131.654876960922
20.8285404750204	0.75	1	late	em_task_post	n/a	n/a	n/a	n/a	n/a
28.0	1.5	2	late	stimulus	n/a	142.5	n/a	n/a	n/a
39.5	0.5	2	late	dm_task_pre	n/a	n/a	n/a	n/a	n/a
40.0	0.620824671001174	2	late	dm_task	0.620824671001174	n/a	21.0	-1.0	n/a
40.620824671001174	0.75	2	late	dm_task_post	n/a	n/a	n/a	n/a	n/a
45.5	0.5	2	late	em_task_pre	n/a	n/a	n/a	n/a	n/a
46.0	3.7038560070214004	2	late	em_task	n/a	n/a	n/a	n/a	146.475945620433
49.7038560070214	0.75	2	late	em_task_post	n/a	n/a	n/a	n/a	n/a
56.0	1.5	3	early	stimulus	n/a	112.5	n/a	n/a	n/a
61.5	0.5	3	early	dm_task_pre	n/a	n/a	n/a	n/a	n/a
62.0	0.626575536996825	3	early	dm_task	0.626575536996825	n/a	0.0	1.0	n/a
62.626575536996825	0.75	3	early	dm_task_post	n/a	n/a	n/a	n/a	n/a
73.5	0.5	3	early	em_task_pre	n/a	n/a	n/a	n/a	n/a
74.0	2.513272587006199	3	early	em_task	n/a	n/a	n/a	n/a	119.821931710283
76.5132725870062	0.75	3	early	em_task_post	n/a	n/a	n/a	n/a	n/a
84.0	1.5	4	early	stimulus	n/a	15.0	n/a	n/a	n/a
89.5	0.5	4	early	dm_task_pre	n/a	n/a	n/a	n/a	n/a
90.0	0.553471250022994	4	early	dm_task	0.553471250022994	n/a	-21.0	1.0	n/a
90.553471250023	0.75	4	early	dm_task_post	n/a	n/a	n/a	n/a	n/a
101.5	0.5	4	early	em_task_pre	n/a	n/a	n/a	n/a	n/a
102.0	2.5737551190250016	4	early	em_task	n/a	n/a	n/a	n/a	17.4591160566063
104.57375511902501	0.75	4	early	em_task_post	n/a	n/a	n/a	n/a	n/a
112.0	1.5	5	early	stimulus	n/a	52.5	n/a	n/a	n/a
117.5	0.5	5	early	dm_task_pre	n/a	n/a	n/a	n/a	n/a
118.0	0.461240496020764	5	early	dm_task	0.461240496020764	n/a	-21.0	1.0	n/a
118.46124049602076	0.75	5	early	dm_task_post	n/a	n/a	n/a	n/a	n/a
129.5	0.5	5	early	em_task_pre	n/a	n/a	n/a	n/a	n/a
130.0	1.3987212810025014	5	early	em_task	n/a	n/a	n/a	n/a	50.9602931758458
131.3987212810025	0.75	5	early	em_task_post	n/a	n/a	n/a	n/a	n/a
140.0	1.5	6	early	stimulus	n/a	97.5	n/a	n/a	n/a
145.5	0.5	6	early	dm_task_pre	n/a	n/a	n/a	n/a	n/a
146.0	0.519721952005057	6	early	dm_task	0.519721952005057	n/a	21.0	-1.0	n/a
146.51972195200506	0.75	6	early	dm_task_post	n/a	n/a	n/a	n/a	n/a
157.5	0.5	6	early	em_task_pre	n/a	n/a	n/a	n/a	n/a
158.0	3.3078994060051983	6	early	em_task	n/a	n/a	n/a	n/a	101.690643462734
161.3078994060052	0.75	6	early	em_task_post	n/a	n/a	n/a	n/a	n/a
168.0	1.5	7	early	stimulus	n/a	82.5	n/a	n/a	n/a
173.5	0.5	7	early	dm_task_pre	n/a	n/a	n/a	n/a	n/a
174.0	1.09653911401983	7	early	dm_task	1.09653911401983	n/a	-4.0	1.0	n/a
175.09653911401983	0.75	7	early	dm_task_post	n/a	n/a	n/a	n/a	n/a
185.5	0.5	7	early	em_task_pre	n/a	n/a	n/a	n/a	n/a
186.0	3.3002128100197012	7	early	em_task	n/a	n/a	n/a	n/a	79.5965054890209
189.3002128100197	0.75	7	early	em_task_post	n/a	n/a	n/a	n/a	n/a
196.0	1.5	8	early	stimulus	n/a	37.5	n/a	n/a	n/a
201.5	0.5	8	early	dm_task_pre	n/a	n/a	n/a	n/a	n/a
202.0	0.807565969007555	8	early	dm_task	0.807565969007555	n/a	4.0	-1.0	n/a
202.80756596900756	0.75	8	early	dm_task_post	n/a	n/a	n/a	n/a	n/a
213.5	0.5	8	early	em_task_pre	n/a	n/a	n/a	n/a	n/a
214.0	3.5447735160123983	8	early	em_task	n/a	n/a	n/a	n/a	27.1321538991485
217.5447735160124	0.75	8	early	em_task_post	n/a	n/a	n/a	n/a	n/a
224.0	1.5	9	late	stimulus	n/a	120.0	n/a	n/a	n/a
235.5	0.5	9	late	dm_task_pre	n/a	n/a	n/a	n/a	n/a
236.0	0.516629189020023	9	late	dm_task	0.516629189020023	n/a	-21.0	1.0	n/a
236.51662918902002	0.75	9	late	dm_task_post	n/a	n/a	n/a	n/a	n/a
241.5	0.5	9	late	em_task_pre	n/a	n/a	n/a	n/a	n/a
242.0	2.3897580040211004	9	late	em_task	n/a	n/a	n/a	n/a	123.872875191618
244.3897580040211	0.75	9	late	em_task_post	n/a	n/a	n/a	n/a	n/a
252.0	1.5	10	early	stimulus	n/a	150.0	n/a	n/a	n/a
257.5	0.5	10	early	dm_task_pre	n/a	n/a	n/a	n/a	n/a
258.0	0.512881194998045	10	early	dm_task	0.512881194998045	n/a	-21.0	1.0	n/a
258.51288119499804	0.75	10	early	dm_task_post	n/a	n/a	n/a	n/a	n/a
269.5	0.5	10	early	em_task_pre	n/a	n/a	n/a	n/a	n/a
270.0	2.9819120300235014	10	early	em_task	n/a	n/a	n/a	n/a	151.315385936357
272.9819120300235	0.75	10	early	em_task_post	n/a	n/a	n/a	n/a	n/a
280.0	1.5	11	early	stimulus	n/a	45.0	n/a	n/a	n/a
285.5	0.5	11	early	dm_task_pre	n/a	n/a	n/a	n/a	n/a
286.0	1.10227141101495	11	early	dm_task	1.10227141101495	n/a	-4.0	-1.0	n/a
287.10227141101495	0.75	11	early	dm_task_post	n/a	n/a	n/a	n/a	n/a
297.5	0.5	11	early	em_task_pre	n/a	n/a	n/a	n/a	n/a
298.0	3.3087202440074	11	early	em_task	n/a	n/a	n/a	n/a	32.2378985410305
301.3087202440074	0.75	11	early	em_task_post	n/a	n/a	n/a	n/a	n/a
308.0	1.5	12	early	stimulus	n/a	157.5	n/a	n/a	n/a
313.5	0.5	12	early	dm_task_pre	n/a	n/a	n/a	n/a	n/a
314.0	0.740630870015593	12	early	dm_task	0.740630870015593	n/a	-4.0	1.0	n/a
314.7406308700156	0.75	12	early	dm_task_post	n/a	n/a	n/a	n/a	n/a
325.5	0.5	12	early	em_task_pre	n/a	n/a	n/a	n/a	n/a
326.0	1.998343039013001	12	early	em_task	n/a	n/a	n/a	n/a	152.913391997565
327.998343039013	0.75	12	early	em_task_post	n/a	n/a	n/a	n/a	n/a
