onset	duration	trial	trial_type	event_type	response_time	value_stimulus	value_reference	response_decision	response_estimation
0.0	1.5	1	early	stimulus	n/a	165.0	n/a	n/a	n/a
5.5	0.5	1	early	dm_task_pre	n/a	n/a	n/a	n/a	n/a
6.0	0.632500843028538	1	early	dm_task	0.632500843028538	n/a	4.0	-1.0	n/a
6.632500843028538	0.75	1	early	dm_task_post	n/a	n/a	n/a	n/a	n/a
17.5	0.5	1	early	em_task_pre	n/a	n/a	n/a	n/a	n/a
18.0	2.2431582760181996	1	early	em_task	n/a	n/a	n/a	n/a	154.071809009296
20.2431582760182	0.75	1	early	em_task_post	n/a	n/a	n/a	n/a	n/a
28.0	1.5	2	late	stimulus	n/a	52.5	n/a	n/a	n/a
39.5	0.5	2	late	dm_task_pre	n/a	n/a	n/a	n/a	n/a
40.0	0.750398714008043	2	late	dm_task	0.750398714008043	n/a	0.0	-1.0	n/a
40.75039871400804	0.75	2	late	dm_task_post	n/a	n/a	n/a	n/a	n/a
45.5	0.5	2	late	em_task_pre	n/a	n/a	n/a	n/a	n/a
46.0	2.5144552260172013	2	late	em_task	n/a	n/a	n/a	n/a	45.0188755639364
48.514455226017205	0.75	2	late	em_task_post	n/a	n/a	n/a	n/a	n/a
56.0	1.5	3	late	stimulus	n/a	45.0	n/a	n/a	n/a
67.5	0.5	3	late	dm_task_pre	n/a	n/a	n/a	n/a	n/a
68.0	0.6717017290066	3	late	dm_task	0.6717017290066	n/a	-21.0	1.0	n/a
68.6717017290066	0.75	3	late	dm_task_post	n/a	n/a	n/a	n/a	n/a
73.5	0.5	3	late	em_task_pre	n/a	n/a	n/a	n/a	n/a
74.0	2.2019192710286006	3	late	em_task	n/a	n/a	n/a	n/a	41.1022648690597
76.2019192710286	0.75	3	late	em_task_post	n/a	n/a	n/a	n/a	n/a
84.0	1.5	4	early	stimulus	n/a	22.5	n/a	n/a	n/a
89.5	0.5	4	early	dm_task_pre	n/a	n/a	n/a	n/a	n/a
90.0	0.545437467022566	4	early	dm_task	0.545437467022566	n/a	4.0	1.0	n/a
90.54543746702257	0.75	4	early	dm_task_post	n/a	n/a	n/a	n/a	n/a
101.5	0.5	4	early	em_task_pre	n/a	n/a	n/a	n/a	n/a
102.0	4.5	4	early	em_task	n/a	n/a	n/a	n/a	n/a
106.5	0.75	4	early	em_task_post	n/a	n/a	n/a	n/a	n/a
112.0	1.5	5	late	stimulus	n/a	67.5	n/a	n/a	n/a
123.5	0.5	5	late	dm_task_pre	n/a	n/a	n/a	n/a	n/a
124.0	0.497746746026678	5	late	dm_task	0.497746746026678	n/a	-4.0	1.0	n/a
124.49774674602668	0.75	5	late	dm_task_post	n/a	n/a	n/a	n/a	n/a
129.5	0.5	5	late	em_task_pre	n/a	n/a	n/a	n/a	n/a
130.0	2.2604045870248015	5	late	em_task	n/a	n/a	n/a	n/a	71.5705975948528
132.2604045870248	0.75	5	late	em_task_post	n/a	n/a	n/a	n/a	n/a
140.0	1.5	6	early	stimulus	n/a	150.0	n/a	n/a	n/a
145.5	0.5	6	early	dm_task_pre	n/a	n/a	n/a	n/a	n/a
146.0	0.436871681013145	6	early	dm_task	0.436871681013145	n/a	21.0	-1.0	n/a
146.43687168101314	0.75	6	early	dm_task_post	n/a	n/a	n/a	n/a	n/a
157.5	0.5	6	early	em_task_pre	n/a	n/a	n/a	n/a	n/a
158.0	2.1983424360224006	6	early	em_task	n/a	n/a	n/a	n/a	133.605596590322
160.19834243602241	0.75	6	early	em_task_post	n/a	n/a	n/a	n/a	n/a
168.0	1.5	7	late	stimulus	n/a	157.5	n/a	n/a	n/a
179.5	0.5	7	late	dm_task_pre	n/a	n/a	n/a	n/a	n/a
180.0	1.18810702001792	7	late	dm_task	1.18810702001792	n/a	0.0	1.0	n/a
181.18810702001792	0.75	7	late	dm_task_post	n/a	n/a	n/a	n/a	n/a
185.5	0.5	7	late	em_task_pre	n/a	n/a	n/a	n/a	n/a
186.0	3.0026544320280983	7	late	em_task	n/a	n/a	n/a	n/a	150.764002343278
189.0026544320281	0.75	7	late	em_task_post	n/a	n/a	n/a	n/a	n/a
196.0	1.5	8	late	stimulus	n/a	97.5	n/a	n/a	n/a
207.5	0.5	8	late	dm_task_pre	n/a	n/a	n/a	n/a	n/a
208.0	0.543721560010454	8	late	dm_task	0.543721560010454	n/a	-4.0	1.0	n/a
208.54372156001045	0.75	8	late	dm_task_post	n/a	n/a	n/a	n/a	n/a
213.5	0.5	8	late	em_task_pre	n/a	n/a	n/a	n/a	n/a
214.0	3.1895889050211004	8	late	em_task	n/a	n/a	n/a	n/a	103.038306199171
217.1895889050211	0.75	8	late	em_task_post	n/a	n/a	n/a	n/a	n/a
224.0	1.5	9	early	stimulus	n/a	120.0	n/a	n/a	n/a
229.5	0.5	9	early	dm_task_pre	n/a	n/a	n/a	n/a	n/a
230.0	0.517951065005036	9	early	dm_task	0.517951065005036	n/a	0.0	-1.0	n/a
230.51795106500504	0.75	9	early	dm_task_post	n/a	n/a	n/a	n/a	n/a
241.5	0.5	9	early	em_task_pre	n/a	n/a	n/a	n/a	n/a
242.0	1.3611743680084984	9	early	em_task	n/a	n/a	n/a	n/a	105.995170900085
243.3611743680085	0.75	9	early	em_task_post	n/a	n/a	n/a	n/a	n/a
252.0	1.5	10	late	stimulus	n/a	127.5	n/a	n/a	n/a
263.5	0.5	10	late	dm_task_pre	n/a	n/a	n/a	n/a	n/a
264.0	0.784883995016571	10	late	dm_task	0.784883995016571	n/a	21.0	-1.0	n/a
264.78488399501657	0.75	10	late	dm_task_post	n/a	n/a	n/a	n/a	n/a
269.5	0.5	10	late	em_task_pre	n/a	n/a	n/a	n/a	n/a
270.0	1.665028698014801	10	late	em_task	n/a	n/a	n/a	n/a	127.650282287186
271.6650286980148	0.75	10	late	em_task_post	n/a	n/a	n/a	n/a	n/a
280.0	1.5	11	early	stimulus	n/a	30.0	n/a	n/a	n/a
285.5	0.5	11	early	dm_task_pre	n/a	n/a	n/a	n/a	n/a
286.0	1.00794568602578	11	early	dm_task	1.00794568602578	n/a	21.0	1.0	n/a
287.0079456860258	0.75	11	early	dm_task_post	n/a	n/a	n/a	n/a	n/a
297.5	0.5	11	early	em_task_pre	n/a	n/a	n/a	n/a	n/a
298.0	3.3686912330158982	11	early	em_task	n/a	n/a	n/a	n/a	38.0892066010964
301.3686912330159	0.75	11	early	em_task_post	n/a	n/a	n/a	n/a	n/a
308.0	1.5	12	late	stimulus	n/a	0.0	n/a	n/a	n/a
319.5	0.5	12	late	dm_task_pre	n/a	n/a	n/a	n/a	n/a
320.0	0.792920240026433	12	late	dm_task	0.792920240026433	n/a	-4.0	-1.0	n/a
320.79292024002643	0.75	12	late	dm_task_post	n/a	n/a	n/a	n/a	n/a
325.5	0.5	12	late	em_task_pre	n/a	n/a	n/a	n/a	n/a
326.0	1.5235986150218999	12	late	em_task	n/a	n/a	n/a	n/a	163.9730126858
327.5235986150219	0.75	12	late	em_task_post	n/a	n/a	n/a	n/a	n/a
