onset	duration	trial	trial_type	event_type	response_time	value_stimulus	value_reference	response_decision	response_estimation
0.0	1.5	1	late	stimulus	n/a	127.5	n/a	n/a	n/a
11.5	0.5	1	late	dm_task_pre	n/a	n/a	n/a	n/a	n/a
12.0	0.612664378015324	1	late	dm_task	0.612664378015324	n/a	21.0	1.0	n/a
12.612664378015324	0.75	1	late	dm_task_post	n/a	n/a	n/a	n/a	n/a
17.5	0.5	1	late	em_task_pre	n/a	n/a	n/a	n/a	n/a
18.0	0.965170818031801	1	late	em_task	n/a	n/a	n/a	n/a	68.4308113000181
18.9651708180318	0.75	1	late	em_task_post	n/a	n/a	n/a	n/a	n/a
28.0	1.5	2	late	stimulus	n/a	97.5	n/a	n/a	n/a
39.5	0.5	2	late	dm_task_pre	n/a	n/a	n/a	n/a	n/a
40.0	0.621902638988104	2	late	dm_task	0.621902638988104	n/a	21.0	1.0	n/a
40.621902638988104	0.75	2	late	dm_task_post	n/a	n/a	n/a	n/a	n/a
45.5	0.5	2	late	em_task_pre	n/a	n/a	n/a	n/a	n/a
46.0	2.074614021985301	2	late	em_task	n/a	n/a	n/a	n/a	126.018589316964
48.0746140219853	0.75	2	late	em_task_post	n/a	n/a	n/a	n/a	n/a
56.0	1.5	3	early	stimulus	n/a	135.0	n/a	n/a	n/a
61.5	0.5	3	early	dm_task_pre	n/a	n/a	n/a	n/a	n/a
62.0	0.545935472007841	3	early	dm_task	0.545935472007841	n/a	21.0	-1.0	n/a
62.54593547200784	0.75	3	early	dm_task_post	n/a	n/a	n/a	n/a	n/a
73.5	0.5	3	early	em_task_pre	n/a	n/a	n/a	n/a	n/a
74.0	1.7337133400142015	3	early	em_task	n/a	n/a	n/a	n/a	133.326901759837
75.7337133400142	0.75	3	early	em_task_post	n/a	n/a	n/a	n/a	n/a
84.0	1.5	4	early	stimulus	n/a	82.5	n/a	n/a	n/a
89.5	0.5	4	early	dm_task_pre	n/a	n/a	n/a	n/a	n/a
90.0	0.821593625005335	4	early	dm_task	0.821593625005335	n/a	21.0	-1.0	n/a
90.82159362500533	0.75	4	early	dm_task_post	n/a	n/a	n/a	n/a	n/a
101.5	0.5	4	early	em_task_pre	n/a	n/a	n/a	n/a	n/a
102.0	2.226925572031199	4	early	em_task	n/a	n/a	n/a	n/a	67.06660111772
104.2269255720312	0.75	4	early	em_task_post	n/a	n/a	n/a	n/a	n/a
112.0	1.5	5	late	stimulus	n/a	75.0	n/a	n/a	n/a
123.5	0.5	5	late	dm_task_pre	n/a	n/a	n/a	n/a	n/a
124.0	0.69925411103759	5	late	dm_task	0.69925411103759	n/a	0.0	-1.0	n/a
124.69925411103759	0.75	5	late	dm_task_post	n/a	n/a	n/a	n/a	n/a
129.5	0.5	5	late	em_task_pre	n/a	n/a	n/a	n/a	n/a
130.0	3.9019359350204006	5	late	em_task	n/a	n/a	n/a	n/a	67.8444533091789
133.9019359350204	0.75	5	late	em_task_post	n/a	n/a	n/a	n/a	n/a
140.0	1.5	6	early	stimulus	n/a	172.5	n/a	n/a	n/a
145.5	0.5	6	early	dm_task_pre	n/a	n/a	n/a	n/a	n/a
146.0	0.490386117016897	6	early	dm_task	0.490386117016897	n/a	-4.0	-1.0	n/a
146.4903861170169	0.75	6	early	dm_task_post	n/a	n/a	n/a	n/a	n/a
157.5	0.5	6	early	em_task_pre	n/a	n/a	n/a	n/a	n/a
158.0	3.1457939050159993	6	early	em_task	n/a	n/a	n/a	n/a	154.038678014205
161.145793905016	0.75	6	early	em_task_post	n/a	n/a	n/a	n/a	n/a
168.0	1.5	7	early	stimulus	n/a	0.0	n/a	n/a	n/a
173.5	0.5	7	early	dm_task_pre	n/a	n/a	n/a	n/a	n/a
174.0	0.566339651995804	7	early	dm_task	0.566339651995804	n/a	0.0	-1.0	n/a
174.5663396519958	0.75	7	early	dm_task_post	n/a	n/a	n/a	n/a	n/a
185.5	0.5	7	early	em_task_pre	n/a	n/a	n/a	n/a	n/a
186.0	2.2535232040100013	7	early	em_task	n/a	n/a	n/a	n/a	175.328873352889
188.25352320401	0.75	7	early	em_task_post	n/a	n/a	n/a	n/a	n/a
196.0	1.5	8	early	stimulus	n/a	120.0	n/a	n/a	n/a
201.5	0.5	8	early	dm_task_pre	n/a	n/a	n/a	n/a	n/a
202.0	0.542712583031971	8	early	dm_task	0.542712583031971	n/a	21.0	-1.0	n/a
202.54271258303197	0.75	8	early	dm_task_post	n/a	n/a	n/a	n/a	n/a
213.5	0.5	8	early	em_task_pre	n/a	n/a	n/a	n/a	n/a
214.0	3.1465570700237997	8	early	em_task	n/a	n/a	n/a	n/a	125.824208878422
217.1465570700238	0.75	8	early	em_task_post	n/a	n/a	n/a	n/a	n/a
224.0	1.5	9	late	stimulus	n/a	105.0	n/a	n/a	n/a
235.5	0.5	9	late	dm_task_pre	n/a	n/a	n/a	n/a	n/a
236.0	0.503502540988848	9	late	dm_task	0.503502540988848	n/a	4.0	1.0	n/a
236.50350254098885	0.75	9	late	dm_task_post	n/a	n/a	n/a	n/a	n/a
241.5	0.5	9	late	em_task_pre	n/a	n/a	n/a	n/a	n/a
242.0	2.8064420450245997	9	late	em_task	n/a	n/a	n/a	n/a	123.241999640446
244.8064420450246	0.75	9	late	em_task_post	n/a	n/a	n/a	n/a	n/a
252.0	1.5	10	early	stimulus	n/a	52.5	n/a	n/a	n/a
257.5	0.5	10	early	dm_task_pre	n/a	n/a	n/a	n/a	n/a
258.0	0.542530847014859	10	early	dm_task	0.542530847014859	n/a	21.0	-1.0	n/a
258.54253084701486	0.75	10	early	dm_task_post	n/a	n/a	n/a	n/a	n/a
269.5	0.5	10	early	em_task_pre	n/a	n/a	n/a	n/a	n/a
270.0	2.0980550920358	10	early	em_task	n/a	n/a	n/a	n/a	54.7380055539788
272.0980550920358	0.75	10	early	em_task_post	n/a	n/a	n/a	n/a	n/a
280.0	1.5	11	late	stimulus	n/a	112.5	n/a	n/a	n/a
291.5	0.5	11	late	dm_task_pre	n/a	n/a	n/a	n/a	n/a
292.0	0.537726512004156	11	late	dm_task	0.537726512004156	n/a	-4.0	1.0	n/a
292.53772651200416	0.75	11	late	dm_task_post	n/a	n/a	n/a	n/a	n/a
297.5	0.5	11	late	em_task_pre	n/a	n/a	n/a	n/a	n/a
298.0	2.1241617260383983	11	late	em_task	n/a	n/a	n/a	n/a	123.323584479922
300.1241617260384	0.75	11	late	em_task_post	n/a	n/a	n/a	n/a	n/a
308.0	1.5	12	late	stimulus	n/a	30.0	n/a	n/a	n/a
319.5	0.5	12	late	dm_task_pre	n/a	n/a	n/a	n/a	n/a
320.0	0.480824111029506	12	late	dm_task	0.480824111029506	n/a	-21.0	1.0	n/a
320.4808241110295	0.75	12	late	dm_task_post	n/a	n/a	n/a	n/a	n/a
325.5	0.5	12	late	em_task_pre	n/a	n/a	n/a	n/a	n/a
326.0	1.4487795400199985	12	late	em_task	n/a	n/a	n/a	n/a	39.3279412944597
327.44877954002	0.75	12	late	em_task_post	n/a	n/a	n/a	n/a	n/a
