onset	duration	trial	trial_type	event_type	response_time	value_stimulus	value_reference	response_decision	response_estimation
0.0	1.5	1	early	stimulus	n/a	52.5	n/a	n/a	n/a
5.5	0.5	1	early	dm_task_pre	n/a	n/a	n/a	n/a	n/a
6.0	1.1230820080018	1	early	dm_task	1.1230820080018	n/a	21.0	1.0	n/a
7.1230820080018	0.75	1	early	dm_task_post	n/a	n/a	n/a	n/a	n/a
17.5	0.5	1	early	em_task_pre	n/a	n/a	n/a	n/a	n/a
18.0	2.600586763001001	1	early	em_task	n/a	n/a	n/a	n/a	60.8562348974947
20.600586763001	0.75	1	early	em_task_post	n/a	n/a	n/a	n/a	n/a
28.0	1.5	2	late	stimulus	n/a	172.5	n/a	n/a	n/a
39.5	0.5	2	late	dm_task_pre	n/a	n/a	n/a	n/a	n/a
40.0	1.07914580799843	2	late	dm_task	1.07914580799843	n/a	-21.0	1.0	n/a
41.07914580799843	0.75	2	late	dm_task_post	n/a	n/a	n/a	n/a	n/a
45.5	0.5	2	late	em_task_pre	n/a	n/a	n/a	n/a	n/a
46.0	3.7914550979986004	2	late	em_task	n/a	n/a	n/a	n/a	164.12265005186
49.7914550979986	0.75	2	late	em_task_post	n/a	n/a	n/a	n/a	n/a
56.0	1.5	3	late	stimulus	n/a	0.0	n/a	n/a	n/a
67.5	0.5	3	late	dm_task_pre	n/a	n/a	n/a	n/a	n/a
68.0	0.903527777998534	3	late	dm_task	0.903527777998534	n/a	-4.0	1.0	n/a
68.90352777799853	0.75	3	late	dm_task_post	n/a	n/a	n/a	n/a	n/a
73.5	0.5	3	late	em_task_pre	n/a	n/a	n/a	n/a	n/a
74.0	4.1491991689982015	3	late	em_task	n/a	n/a	n/a	n/a	178.618564955526
78.1491991689982	0.75	3	late	em_task_post	n/a	n/a	n/a	n/a	n/a
84.0	1.5	4	early	stimulus	n/a	150.0	n/a	n/a	n/a
89.5	0.5	4	early	dm_task_pre	n/a	n/a	n/a	n/a	n/a
90.0	0.960768072000064	4	early	dm_task	0.960768072000064	n/a	4.0	-1.0	n/a
90.96076807200006	0.75	4	early	dm_task_post	n/a	n/a	n/a	n/a	n/a
101.5	0.5	4	early	em_task_pre	n/a	n/a	n/a	n/a	n/a
102.0	2.9909715199974016	4	early	em_task	n/a	n/a	n/a	n/a	147.013931093867
104.9909715199974	0.75	4	early	em_task_post	n/a	n/a	n/a	n/a	n/a
112.0	1.5	5	late	stimulus	n/a	112.5	n/a	n/a	n/a
123.5	0.5	5	late	dm_task_pre	n/a	n/a	n/a	n/a	n/a
124.0	0.902797989998362	5	late	dm_task	0.902797989998362	n/a	-21.0	1.0	n/a
124.90279798999836	0.75	5	late	dm_task_post	n/a	n/a	n/a	n/a	n/a
129.5	0.5	5	late	em_task_pre	n/a	n/a	n/a	n/a	n/a
130.0	3.832045752999001	5	late	em_task	n/a	n/a	n/a	n/a	111.055883811082
133.832045752999	0.75	5	late	em_task_post	n/a	n/a	n/a	n/a	n/a
140.0	1.5	6	early	stimulus	n/a	30.0	n/a	n/a	n/a
145.5	0.5	6	early	dm_task_pre	n/a	n/a	n/a	n/a	n/a
146.0	0.945957595999062	6	early	dm_task	0.945957595999062	n/a	0.0	1.0	n/a
146.94595759599906	0.75	6	early	dm_task_post	n/a	n/a	n/a	n/a	n/a
157.5	0.5	6	early	em_task_pre	n/a	n/a	n/a	n/a	n/a
158.0	3.2733856380000006	6	early	em_task	n/a	n/a	n/a	n/a	25.3190706855544
161.273385638	0.75	6	early	em_task_post	n/a	n/a	n/a	n/a	n/a
168.0	1.5	7	early	stimulus	n/a	60.0	n/a	n/a	n/a
173.5	0.5	7	early	dm_task_pre	n/a	n/a	n/a	n/a	n/a
174.0	1.38702045899845	7	early	dm_task	1.38702045899845	n/a	0.0	1.0	n/a
175.38702045899845	0.75	7	early	dm_task_post	n/a	n/a	n/a	n/a	n/a
185.5	0.5	7	early	em_task_pre	n/a	n/a	n/a	n/a	n/a
186.0	1.2153048280015	7	early	em_task	n/a	n/a	n/a	n/a	72.8550759411091
187.2153048280015	0.75	7	early	em_task_post	n/a	n/a	n/a	n/a	n/a
196.0	1.5	8	early	stimulus	n/a	142.5	n/a	n/a	n/a
201.5	0.5	8	early	dm_task_pre	n/a	n/a	n/a	n/a	n/a
202.0	1.22834898399742	8	early	dm_task	1.22834898399742	n/a	4.0	1.0	n/a
203.22834898399742	0.75	8	early	dm_task_post	n/a	n/a	n/a	n/a	n/a
213.5	0.5	8	early	em_task_pre	n/a	n/a	n/a	n/a	n/a
214.0	4.4387924800029985	8	early	em_task	n/a	n/a	n/a	n/a	154.881116290968
218.438792480003	0.75	8	early	em_task_post	n/a	n/a	n/a	n/a	n/a
224.0	1.5	9	late	stimulus	n/a	105.0	n/a	n/a	n/a
235.5	0.5	9	late	dm_task_pre	n/a	n/a	n/a	n/a	n/a
236.0	1.0678435009977	9	late	dm_task	1.0678435009977	n/a	4.0	1.0	n/a
237.0678435009977	0.75	9	late	dm_task_post	n/a	n/a	n/a	n/a	n/a
241.5	0.5	9	late	em_task_pre	n/a	n/a	n/a	n/a	n/a
242.0	3.230869594997799	9	late	em_task	n/a	n/a	n/a	n/a	125.152466578688
245.23086959499778	0.75	9	late	em_task_post	n/a	n/a	n/a	n/a	n/a
252.0	1.5	10	late	stimulus	n/a	157.5	n/a	n/a	n/a
263.5	0.5	10	late	dm_task_pre	n/a	n/a	n/a	n/a	n/a
264.0	1.5	10	late	dm_task	1.60679241800244	n/a	4.0	-1.0	n/a
265.5	0.75	10	late	dm_task_post	n/a	n/a	n/a	n/a	n/a
269.5	0.5	10	late	em_task_pre	n/a	n/a	n/a	n/a	n/a
270.0	3.405099311996299	10	late	em_task	n/a	n/a	n/a	n/a	152.492481061593
273.4050993119963	0.75	10	late	em_task_post	n/a	n/a	n/a	n/a	n/a
280.0	1.5	11	early	stimulus	n/a	75.0	n/a	n/a	n/a
285.5	0.5	11	early	dm_task_pre	n/a	n/a	n/a	n/a	n/a
286.0	1.21827671900246	11	early	dm_task	1.21827671900246	n/a	0.0	1.0	n/a
287.21827671900246	0.75	11	early	dm_task_post	n/a	n/a	n/a	n/a	n/a
297.5	0.5	11	early	em_task_pre	n/a	n/a	n/a	n/a	n/a
298.0	2.6798937790007997	11	early	em_task	n/a	n/a	n/a	n/a	73.3357097864933
300.6798937790008	0.75	11	early	em_task_post	n/a	n/a	n/a	n/a	n/a
308.0	1.5	12	early	stimulus	n/a	165.0	n/a	n/a	n/a
313.5	0.5	12	early	dm_task_pre	n/a	n/a	n/a	n/a	n/a
314.0	1.02669639299711	12	early	dm_task	1.02669639299711	n/a	-4.0	-1.0	n/a
315.0266963929971	0.75	12	early	dm_task_post	n/a	n/a	n/a	n/a	n/a
325.5	0.5	12	early	em_task_pre	n/a	n/a	n/a	n/a	n/a
326.0	2.719495493001901	12	early	em_task	n/a	n/a	n/a	n/a	128.404310899378
328.7194954930019	0.75	12	early	em_task_post	n/a	n/a	n/a	n/a	n/a
