onset	duration	trial	trial_type	event_type	response_time	value_stimulus	value_reference	response_decision	response_estimation
0.0	1.5	1	late	stimulus	n/a	90.0	n/a	n/a	n/a
11.5	0.5	1	late	dm_task_pre	n/a	n/a	n/a	n/a	n/a
12.0	0.833662663993891	1	late	dm_task	0.833662663993891	n/a	-4.0	1.0	n/a
12.833662663993891	0.75	1	late	dm_task_post	n/a	n/a	n/a	n/a	n/a
17.5	0.5	1	late	em_task_pre	n/a	n/a	n/a	n/a	n/a
18.0	3.2710466170101	1	late	em_task	n/a	n/a	n/a	n/a	97.0875608906639
21.2710466170101	0.75	1	late	em_task_post	n/a	n/a	n/a	n/a	n/a
28.0	1.5	2	early	stimulus	n/a	82.5	n/a	n/a	n/a
33.5	0.5	2	early	dm_task_pre	n/a	n/a	n/a	n/a	n/a
34.0	1.19182015699334	2	early	dm_task	1.19182015699334	n/a	4.0	-1.0	n/a
35.19182015699334	0.75	2	early	dm_task_post	n/a	n/a	n/a	n/a	n/a
45.5	0.5	2	early	em_task_pre	n/a	n/a	n/a	n/a	n/a
46.0	1.9292217890033	2	early	em_task	n/a	n/a	n/a	n/a	79.8317498796011
47.9292217890033	0.75	2	early	em_task_post	n/a	n/a	n/a	n/a	n/a
56.0	1.5	3	early	stimulus	n/a	172.5	n/a	n/a	n/a
61.5	0.5	3	early	dm_task_pre	n/a	n/a	n/a	n/a	n/a
62.0	1.06667021202156	3	early	dm_task	1.06667021202156	n/a	21.0	-1.0	n/a
63.06667021202156	0.75	3	early	dm_task_post	n/a	n/a	n/a	n/a	n/a
73.5	0.5	3	early	em_task_pre	n/a	n/a	n/a	n/a	n/a
74.0	1.7229186840122992	3	early	em_task	n/a	n/a	n/a	n/a	151.70253955336
75.7229186840123	0.75	3	early	em_task_post	n/a	n/a	n/a	n/a	n/a
84.0	1.5	4	late	stimulus	n/a	135.0	n/a	n/a	n/a
95.5	0.5	4	late	dm_task_pre	n/a	n/a	n/a	n/a	n/a
96.0	0.629299774998799	4	late	dm_task	0.629299774998799	n/a	-21.0	1.0	n/a
96.6292997749988	0.75	4	late	dm_task_post	n/a	n/a	n/a	n/a	n/a
101.5	0.5	4	late	em_task_pre	n/a	n/a	n/a	n/a	n/a
102.0	1.5319180910009997	4	late	em_task	n/a	n/a	n/a	n/a	149.723144592852
103.531918091001	0.75	4	late	em_task_post	n/a	n/a	n/a	n/a	n/a
112.0	1.5	5	early	stimulus	n/a	105.0	n/a	n/a	n/a
117.5	0.5	5	early	dm_task_pre	n/a	n/a	n/a	n/a	n/a
118.0	1.33722061297158	5	early	dm_task	1.33722061297158	n/a	0.0	-1.0	n/a
119.33722061297158	0.75	5	early	dm_task_post	n/a	n/a	n/a	n/a	n/a
129.5	0.5	5	early	em_task_pre	n/a	n/a	n/a	n/a	n/a
130.0	4.5	5	early	em_task	n/a	n/a	n/a	n/a	n/a
134.5	0.75	5	early	em_task_post	n/a	n/a	n/a	n/a	n/a
140.0	1.5	6	early	stimulus	n/a	157.5	n/a	n/a	n/a
145.5	0.5	6	early	dm_task_pre	n/a	n/a	n/a	n/a	n/a
146.0	1.22752977901837	6	early	dm_task	1.22752977901837	n/a	-4.0	1.0	n/a
147.22752977901837	0.75	6	early	dm_task_post	n/a	n/a	n/a	n/a	n/a
157.5	0.5	6	early	em_task_pre	n/a	n/a	n/a	n/a	n/a
158.0	1.3988302330254	6	early	em_task	n/a	n/a	n/a	n/a	155.231356736886
159.3988302330254	0.75	6	early	em_task_post	n/a	n/a	n/a	n/a	n/a
168.0	1.5	7	late	stimulus	n/a	97.5	n/a	n/a	n/a
179.5	0.5	7	late	dm_task_pre	n/a	n/a	n/a	n/a	n/a
180.0	0.807392338989303	7	late	dm_task	0.807392338989303	n/a	-4.0	1.0	n/a
180.8073923389893	0.75	7	late	dm_task_post	n/a	n/a	n/a	n/a	n/a
185.5	0.5	7	late	em_task_pre	n/a	n/a	n/a	n/a	n/a
186.0	2.374231130990701	7	late	em_task	n/a	n/a	n/a	n/a	105.012719730785
188.3742311309907	0.75	7	late	em_task_post	n/a	n/a	n/a	n/a	n/a
196.0	1.5	8	early	stimulus	n/a	22.5	n/a	n/a	n/a
201.5	0.5	8	early	dm_task_pre	n/a	n/a	n/a	n/a	n/a
202.0	1.07992763997754	8	early	dm_task	1.07992763997754	n/a	-21.0	1.0	n/a
203.07992763997754	0.75	8	early	dm_task_post	n/a	n/a	n/a	n/a	n/a
213.5	0.5	8	early	em_task_pre	n/a	n/a	n/a	n/a	n/a
214.0	4.184771499014499	8	early	em_task	n/a	n/a	n/a	n/a	59.4345216060892
218.1847714990145	0.75	8	early	em_task_post	n/a	n/a	n/a	n/a	n/a
224.0	1.5	9	late	stimulus	n/a	0.0	n/a	n/a	n/a
235.5	0.5	9	late	dm_task_pre	n/a	n/a	n/a	n/a	n/a
236.0	0.840237602998968	9	late	dm_task	0.840237602998968	n/a	4.0	1.0	n/a
236.84023760299897	0.75	9	late	dm_task_post	n/a	n/a	n/a	n/a	n/a
241.5	0.5	9	late	em_task_pre	n/a	n/a	n/a	n/a	n/a
242.0	1.8096836279727988	9	late	em_task	n/a	n/a	n/a	n/a	10.9152612868577
243.8096836279728	0.75	9	late	em_task_post	n/a	n/a	n/a	n/a	n/a
252.0	1.5	10	early	stimulus	n/a	165.0	n/a	n/a	n/a
257.5	0.5	10	early	dm_task_pre	n/a	n/a	n/a	n/a	n/a
258.0	0.948602658987511	10	early	dm_task	0.948602658987511	n/a	0.0	-1.0	n/a
258.9486026589875	0.75	10	early	dm_task_post	n/a	n/a	n/a	n/a	n/a
269.5	0.5	10	early	em_task_pre	n/a	n/a	n/a	n/a	n/a
270.0	1.3200830210117012	10	early	em_task	n/a	n/a	n/a	n/a	30.9926482732236
271.3200830210117	0.75	10	early	em_task_post	n/a	n/a	n/a	n/a	n/a
280.0	1.5	11	late	stimulus	n/a	60.0	n/a	n/a	n/a
291.5	0.5	11	late	dm_task_pre	n/a	n/a	n/a	n/a	n/a
292.0	1.02522821602179	11	late	dm_task	1.02522821602179	n/a	0.0	-1.0	n/a
293.0252282160218	0.75	11	late	dm_task_post	n/a	n/a	n/a	n/a	n/a
297.5	0.5	11	late	em_task_pre	n/a	n/a	n/a	n/a	n/a
298.0	1.3286251939716998	11	late	em_task	n/a	n/a	n/a	n/a	44.2059448431551
299.3286251939717	0.75	11	late	em_task_post	n/a	n/a	n/a	n/a	n/a
308.0	1.5	12	early	stimulus	n/a	75.0	n/a	n/a	n/a
313.5	0.5	12	early	dm_task_pre	n/a	n/a	n/a	n/a	n/a
314.0	1.18440228299005	12	early	dm_task	1.18440228299005	n/a	4.0	-1.0	n/a
315.18440228299005	0.75	12	early	dm_task_post	n/a	n/a	n/a	n/a	n/a
325.5	0.5	12	early	em_task_pre	n/a	n/a	n/a	n/a	n/a
326.0	2.9364830969715996	12	early	em_task	n/a	n/a	n/a	n/a	67.010184741612
328.9364830969716	0.75	12	early	em_task_post	n/a	n/a	n/a	n/a	n/a
