onset	duration	trial	trial_type	event_type	response_time	value_stimulus	value_reference	response_decision	response_estimation
0.0	1.5	1	late	stimulus	n/a	45.0	n/a	n/a	n/a
11.5	0.5	1	late	dm_task_pre	n/a	n/a	n/a	n/a	n/a
12.0	0.555670249974355	1	late	dm_task	0.555670249974355	n/a	-21.0	1.0	n/a
12.555670249974355	0.75	1	late	dm_task_post	n/a	n/a	n/a	n/a	n/a
17.5	0.5	1	late	em_task_pre	n/a	n/a	n/a	n/a	n/a
18.0	2.790915908000901	1	late	em_task	n/a	n/a	n/a	n/a	41.3934448431551
20.7909159080009	0.75	1	late	em_task_post	n/a	n/a	n/a	n/a	n/a
28.0	1.5	2	early	stimulus	n/a	157.5	n/a	n/a	n/a
33.5	0.5	2	early	dm_task_pre	n/a	n/a	n/a	n/a	n/a
34.0	0.596657757996581	2	early	dm_task	0.596657757996581	n/a	-21.0	1.0	n/a
34.59665775799658	0.75	2	early	dm_task_post	n/a	n/a	n/a	n/a	n/a
45.5	0.5	2	early	em_task_pre	n/a	n/a	n/a	n/a	n/a
46.0	2.5327363359975017	2	early	em_task	n/a	n/a	n/a	n/a	146.463309741612
48.5327363359975	0.75	2	early	em_task_post	n/a	n/a	n/a	n/a	n/a
56.0	1.5	3	late	stimulus	n/a	67.5	n/a	n/a	n/a
67.5	0.5	3	late	dm_task_pre	n/a	n/a	n/a	n/a	n/a
68.0	0.75614196099923	3	late	dm_task	0.75614196099923	n/a	-4.0	1.0	n/a
68.75614196099923	0.75	3	late	dm_task_post	n/a	n/a	n/a	n/a	n/a
73.5	0.5	3	late	em_task_pre	n/a	n/a	n/a	n/a	n/a
74.0	2.0924447219877003	3	late	em_task	n/a	n/a	n/a	n/a	72.1526192755464
76.0924447219877	0.75	3	late	em_task_post	n/a	n/a	n/a	n/a	n/a
84.0	1.5	4	late	stimulus	n/a	112.5	n/a	n/a	n/a
95.5	0.5	4	late	dm_task_pre	n/a	n/a	n/a	n/a	n/a
96.0	0.86649076998583	4	late	dm_task	0.86649076998583	n/a	4.0	-1.0	n/a
96.86649076998583	0.75	4	late	dm_task_post	n/a	n/a	n/a	n/a	n/a
101.5	0.5	4	late	em_task_pre	n/a	n/a	n/a	n/a	n/a
102.0	4.5	4	late	em_task	n/a	n/a	n/a	n/a	n/a
106.5	0.75	4	late	em_task_post	n/a	n/a	n/a	n/a	n/a
112.0	1.5	5	early	stimulus	n/a	150.0	n/a	n/a	n/a
117.5	0.5	5	early	dm_task_pre	n/a	n/a	n/a	n/a	n/a
118.0	0.738817288976861	5	early	dm_task	0.738817288976861	n/a	4.0	-1.0	n/a
118.73881728897686	0.75	5	early	dm_task_post	n/a	n/a	n/a	n/a	n/a
129.5	0.5	5	early	em_task_pre	n/a	n/a	n/a	n/a	n/a
130.0	2.3450104939984016	5	early	em_task	n/a	n/a	n/a	n/a	146.132179398625
132.34501049399842	0.75	5	early	em_task_post	n/a	n/a	n/a	n/a	n/a
140.0	1.5	6	early	stimulus	n/a	97.5	n/a	n/a	n/a
145.5	0.5	6	early	dm_task_pre	n/a	n/a	n/a	n/a	n/a
146.0	0.531932148995111	6	early	dm_task	0.531932148995111	n/a	21.0	-1.0	n/a
146.5319321489951	0.75	6	early	dm_task_post	n/a	n/a	n/a	n/a	n/a
157.5	0.5	6	early	em_task_pre	n/a	n/a	n/a	n/a	n/a
158.0	2.8364509299862988	6	early	em_task	n/a	n/a	n/a	n/a	100.180414751727
160.8364509299863	0.75	6	early	em_task_post	n/a	n/a	n/a	n/a	n/a
168.0	1.5	7	early	stimulus	n/a	135.0	n/a	n/a	n/a
173.5	0.5	7	early	dm_task_pre	n/a	n/a	n/a	n/a	n/a
174.0	0.608192865998717	7	early	dm_task	0.608192865998717	n/a	-4.0	1.0	n/a
174.60819286599872	0.75	7	early	dm_task_post	n/a	n/a	n/a	n/a	n/a
185.5	0.5	7	early	em_task_pre	n/a	n/a	n/a	n/a	n/a
186.0	3.262275310000401	7	early	em_task	n/a	n/a	n/a	n/a	132.663993264752
189.2622753100004	0.75	7	early	em_task_post	n/a	n/a	n/a	n/a	n/a
196.0	1.5	8	late	stimulus	n/a	165.0	n/a	n/a	n/a
207.5	0.5	8	late	dm_task_pre	n/a	n/a	n/a	n/a	n/a
208.0	1.13494686997728	8	late	dm_task	1.13494686997728	n/a	-4.0	1.0	n/a
209.13494686997728	0.75	8	late	dm_task_post	n/a	n/a	n/a	n/a	n/a
213.5	0.5	8	late	em_task_pre	n/a	n/a	n/a	n/a	n/a
214.0	3.390021250001201	8	late	em_task	n/a	n/a	n/a	n/a	155.406049047547
217.3900212500012	0.75	8	late	em_task_post	n/a	n/a	n/a	n/a	n/a
224.0	1.5	9	late	stimulus	n/a	7.5	n/a	n/a	n/a
235.5	0.5	9	late	dm_task_pre	n/a	n/a	n/a	n/a	n/a
236.0	1.5	9	late	dm_task	1.7124088179844	n/a	0.0	1.0	n/a
237.5	0.75	9	late	dm_task_post	n/a	n/a	n/a	n/a	n/a
241.5	0.5	9	late	em_task_pre	n/a	n/a	n/a	n/a	n/a
242.0	1.7638205690018012	9	late	em_task	n/a	n/a	n/a	n/a	13.1452070337553
243.7638205690018	0.75	9	late	em_task_post	n/a	n/a	n/a	n/a	n/a
252.0	1.5	10	late	stimulus	n/a	172.5	n/a	n/a	n/a
263.5	0.5	10	late	dm_task_pre	n/a	n/a	n/a	n/a	n/a
264.0	1.38745572598418	10	late	dm_task	1.38745572598418	n/a	-4.0	-1.0	n/a
265.3874557259842	0.75	10	late	dm_task_post	n/a	n/a	n/a	n/a	n/a
269.5	0.5	10	late	em_task_pre	n/a	n/a	n/a	n/a	n/a
270.0	2.8067583419906015	10	late	em_task	n/a	n/a	n/a	n/a	163.552605518103
272.8067583419906	0.75	10	late	em_task_post	n/a	n/a	n/a	n/a	n/a
280.0	1.5	11	early	stimulus	n/a	82.5	n/a	n/a	n/a
285.5	0.5	11	early	dm_task_pre	n/a	n/a	n/a	n/a	n/a
286.0	0.49559874899569	11	early	dm_task	0.49559874899569	n/a	-21.0	1.0	n/a
286.4955987489957	0.75	11	early	dm_task_post	n/a	n/a	n/a	n/a	n/a
297.5	0.5	11	early	em_task_pre	n/a	n/a	n/a	n/a	n/a
298.0	2.6823759779800014	11	early	em_task	n/a	n/a	n/a	n/a	78.1116706154292
300.68237597798	0.75	11	early	em_task_post	n/a	n/a	n/a	n/a	n/a
308.0	1.5	12	late	stimulus	n/a	22.5	n/a	n/a	n/a
319.5	0.5	12	late	dm_task_pre	n/a	n/a	n/a	n/a	n/a
320.0	0.672721854993142	12	late	dm_task	0.672721854993142	n/a	21.0	-1.0	n/a
320.67272185499314	0.75	12	late	dm_task_post	n/a	n/a	n/a	n/a	n/a
325.5	0.5	12	late	em_task_pre	n/a	n/a	n/a	n/a	n/a
326.0	1.7581691949744993	12	late	em_task	n/a	n/a	n/a	n/a	34.3606684047365
327.75816919497447	0.75	12	late	em_task_post	n/a	n/a	n/a	n/a	n/a
