onset	duration	trial	trial_type	event_type	response_time	value_stimulus	value_reference	response_decision	response_estimation
0.0	1.5	1	late	stimulus	n/a	157.5	n/a	n/a	n/a
11.5	0.5	1	late	dm_task_pre	n/a	n/a	n/a	n/a	n/a
12.0	0.729224109993083	1	late	dm_task	0.729224109993083	n/a	4.0	-1.0	n/a
12.729224109993083	0.75	1	late	dm_task_post	n/a	n/a	n/a	n/a	n/a
17.5	0.5	1	late	em_task_pre	n/a	n/a	n/a	n/a	n/a
18.0	2.4845468960119987	1	late	em_task	n/a	n/a	n/a	n/a	151.635858152813
20.484546896012	0.75	1	late	em_task_post	n/a	n/a	n/a	n/a	n/a
28.0	1.5	2	early	stimulus	n/a	60.0	n/a	n/a	n/a
33.5	0.5	2	early	dm_task_pre	n/a	n/a	n/a	n/a	n/a
34.0	0.605388427997241	2	early	dm_task	0.605388427997241	n/a	21.0	-1.0	n/a
34.60538842799724	0.75	2	early	dm_task_post	n/a	n/a	n/a	n/a	n/a
45.5	0.5	2	early	em_task_pre	n/a	n/a	n/a	n/a	n/a
46.0	2.508863805007401	2	early	em_task	n/a	n/a	n/a	n/a	60.740876953217
48.5088638050074	0.75	2	early	em_task_post	n/a	n/a	n/a	n/a	n/a
56.0	1.5	3	early	stimulus	n/a	90.0	n/a	n/a	n/a
61.5	0.5	3	early	dm_task_pre	n/a	n/a	n/a	n/a	n/a
62.0	0.612457022012677	3	early	dm_task	0.612457022012677	n/a	4.0	-1.0	n/a
62.61245702201268	0.75	3	early	dm_task_post	n/a	n/a	n/a	n/a	n/a
73.5	0.5	3	early	em_task_pre	n/a	n/a	n/a	n/a	n/a
74.0	3.518523654987799	3	early	em_task	n/a	n/a	n/a	n/a	87.2127436145072
77.5185236549878	0.75	3	early	em_task_post	n/a	n/a	n/a	n/a	n/a
84.0	1.5	4	early	stimulus	n/a	97.5	n/a	n/a	n/a
89.5	0.5	4	early	dm_task_pre	n/a	n/a	n/a	n/a	n/a
90.0	0.47365230100695	4	early	dm_task	0.47365230100695	n/a	-21.0	1.0	n/a
90.47365230100695	0.75	4	early	dm_task_post	n/a	n/a	n/a	n/a	n/a
101.5	0.5	4	early	em_task_pre	n/a	n/a	n/a	n/a	n/a
102.0	3.278807516995599	4	early	em_task	n/a	n/a	n/a	n/a	99.9185291581423
105.2788075169956	0.75	4	early	em_task_post	n/a	n/a	n/a	n/a	n/a
112.0	1.5	5	late	stimulus	n/a	112.5	n/a	n/a	n/a
123.5	0.5	5	late	dm_task_pre	n/a	n/a	n/a	n/a	n/a
124.0	0.60043925899663	5	late	dm_task	0.60043925899663	n/a	4.0	1.0	n/a
124.60043925899663	0.75	5	late	dm_task_post	n/a	n/a	n/a	n/a	n/a
129.5	0.5	5	late	em_task_pre	n/a	n/a	n/a	n/a	n/a
130.0	3.0873236990010007	5	late	em_task	n/a	n/a	n/a	n/a	117.758028340743
133.087323699001	0.75	5	late	em_task_post	n/a	n/a	n/a	n/a	n/a
140.0	1.5	6	early	stimulus	n/a	165.0	n/a	n/a	n/a
145.5	0.5	6	early	dm_task_pre	n/a	n/a	n/a	n/a	n/a
146.0	0.77395005201106	6	early	dm_task	0.77395005201106	n/a	4.0	-1.0	n/a
146.77395005201106	0.75	6	early	dm_task_post	n/a	n/a	n/a	n/a	n/a
157.5	0.5	6	early	em_task_pre	n/a	n/a	n/a	n/a	n/a
158.0	3.146062723011699	6	early	em_task	n/a	n/a	n/a	n/a	164.819874659958
161.1460627230117	0.75	6	early	em_task_post	n/a	n/a	n/a	n/a	n/a
168.0	1.5	7	late	stimulus	n/a	105.0	n/a	n/a	n/a
179.5	0.5	7	late	dm_task_pre	n/a	n/a	n/a	n/a	n/a
180.0	0.519804612995358	7	late	dm_task	0.519804612995358	n/a	-21.0	1.0	n/a
180.51980461299536	0.75	7	late	dm_task_post	n/a	n/a	n/a	n/a	n/a
185.5	0.5	7	late	em_task_pre	n/a	n/a	n/a	n/a	n/a
186.0	4.238346474012399	7	late	em_task	n/a	n/a	n/a	n/a	115.810968200791
190.2383464740124	0.75	7	late	em_task_post	n/a	n/a	n/a	n/a	n/a
196.0	1.5	8	early	stimulus	n/a	0.0	n/a	n/a	n/a
201.5	0.5	8	early	dm_task_pre	n/a	n/a	n/a	n/a	n/a
202.0	0.692721780011198	8	early	dm_task	0.692721780011198	n/a	21.0	-1.0	n/a
202.6927217800112	0.75	8	early	dm_task_post	n/a	n/a	n/a	n/a	n/a
213.5	0.5	8	early	em_task_pre	n/a	n/a	n/a	n/a	n/a
214.0	3.2649766840041003	8	early	em_task	n/a	n/a	n/a	n/a	5.26565032331297
217.2649766840041	0.75	8	early	em_task_post	n/a	n/a	n/a	n/a	n/a
224.0	1.5	9	early	stimulus	n/a	127.5	n/a	n/a	n/a
229.5	0.5	9	early	dm_task_pre	n/a	n/a	n/a	n/a	n/a
230.0	1.15061282701208	9	early	dm_task	1.15061282701208	n/a	0.0	1.0	n/a
231.15061282701208	0.75	9	early	dm_task_post	n/a	n/a	n/a	n/a	n/a
241.5	0.5	9	early	em_task_pre	n/a	n/a	n/a	n/a	n/a
242.0	3.8911881269886983	9	early	em_task	n/a	n/a	n/a	n/a	125.392134774676
245.8911881269887	0.75	9	early	em_task_post	n/a	n/a	n/a	n/a	n/a
252.0	1.5	10	early	stimulus	n/a	52.5	n/a	n/a	n/a
257.5	0.5	10	early	dm_task_pre	n/a	n/a	n/a	n/a	n/a
258.0	0.609760594001273	10	early	dm_task	0.609760594001273	n/a	0.0	-1.0	n/a
258.6097605940013	0.75	10	early	dm_task_post	n/a	n/a	n/a	n/a	n/a
269.5	0.5	10	early	em_task_pre	n/a	n/a	n/a	n/a	n/a
270.0	3.1148287050019015	10	early	em_task	n/a	n/a	n/a	n/a	49.3733670052863
273.1148287050019	0.75	10	early	em_task_post	n/a	n/a	n/a	n/a	n/a
280.0	1.5	11	late	stimulus	n/a	15.0	n/a	n/a	n/a
291.5	0.5	11	late	dm_task_pre	n/a	n/a	n/a	n/a	n/a
292.0	0.605389831005596	11	late	dm_task	0.605389831005596	n/a	21.0	-1.0	n/a
292.6053898310056	0.75	11	late	dm_task_post	n/a	n/a	n/a	n/a	n/a
297.5	0.5	11	late	em_task_pre	n/a	n/a	n/a	n/a	n/a
298.0	2.108355725009499	11	late	em_task	n/a	n/a	n/a	n/a	25.8540463665014
300.1083557250095	0.75	11	late	em_task_post	n/a	n/a	n/a	n/a	n/a
308.0	1.5	12	late	stimulus	n/a	172.5	n/a	n/a	n/a
319.5	0.5	12	late	dm_task_pre	n/a	n/a	n/a	n/a	n/a
320.0	0.830190237989882	12	late	dm_task	0.830190237989882	n/a	-21.0	1.0	n/a
320.8301902379899	0.75	12	late	dm_task_post	n/a	n/a	n/a	n/a	n/a
325.5	0.5	12	late	em_task_pre	n/a	n/a	n/a	n/a	n/a
326.0	2.5995834170025987	12	late	em_task	n/a	n/a	n/a	n/a	167.366889978249
328.5995834170026	0.75	12	late	em_task_post	n/a	n/a	n/a	n/a	n/a
