onset	duration	trial	trial_type	event_type	response_time	value_stimulus	value_reference	response_decision	response_estimation
0.0	1.5	1	early	stimulus	n/a	37.5	n/a	n/a	n/a
5.5	0.5	1	early	dm_task_pre	n/a	n/a	n/a	n/a	n/a
6.0	0.811883971000498	1	early	dm_task	0.811883971000498	n/a	-4.0	-1.0	n/a
6.811883971000498	0.75	1	early	dm_task_post	n/a	n/a	n/a	n/a	n/a
17.5	0.5	1	early	em_task_pre	n/a	n/a	n/a	n/a	n/a
18.0	1.5887256060014003	1	early	em_task	n/a	n/a	n/a	n/a	21.6978693645007
19.5887256060014	0.75	1	early	em_task_post	n/a	n/a	n/a	n/a	n/a
28.0	1.5	2	late	stimulus	n/a	52.5	n/a	n/a	n/a
39.5	0.5	2	late	dm_task_pre	n/a	n/a	n/a	n/a	n/a
40.0	0.833402243999444	2	late	dm_task	0.833402243999444	n/a	-4.0	-1.0	n/a
40.833402243999444	0.75	2	late	dm_task_post	n/a	n/a	n/a	n/a	n/a
45.5	0.5	2	late	em_task_pre	n/a	n/a	n/a	n/a	n/a
46.0	3.4464138210023982	2	late	em_task	n/a	n/a	n/a	n/a	49.2892901747033
49.446413821002395	0.75	2	late	em_task_post	n/a	n/a	n/a	n/a	n/a
56.0	1.5	3	early	stimulus	n/a	172.5	n/a	n/a	n/a
61.5	0.5	3	early	dm_task_pre	n/a	n/a	n/a	n/a	n/a
62.0	1.19327824300126	3	early	dm_task	1.19327824300126	n/a	21.0	-1.0	n/a
63.19327824300126	0.75	3	early	dm_task_post	n/a	n/a	n/a	n/a	n/a
73.5	0.5	3	early	em_task_pre	n/a	n/a	n/a	n/a	n/a
74.0	2.6042217220019985	3	early	em_task	n/a	n/a	n/a	n/a	170.65555713095
76.604221722002	0.75	3	early	em_task_post	n/a	n/a	n/a	n/a	n/a
84.0	1.5	4	late	stimulus	n/a	60.0	n/a	n/a	n/a
95.5	0.5	4	late	dm_task_pre	n/a	n/a	n/a	n/a	n/a
96.0	0.666150752000249	4	late	dm_task	0.666150752000249	n/a	-21.0	1.0	n/a
96.66615075200025	0.75	4	late	dm_task_post	n/a	n/a	n/a	n/a	n/a
101.5	0.5	4	late	em_task_pre	n/a	n/a	n/a	n/a	n/a
102.0	1.7454832229995993	4	late	em_task	n/a	n/a	n/a	n/a	72.9384496163883
103.7454832229996	0.75	4	late	em_task_post	n/a	n/a	n/a	n/a	n/a
112.0	1.5	5	late	stimulus	n/a	90.0	n/a	n/a	n/a
123.5	0.5	5	late	dm_task_pre	n/a	n/a	n/a	n/a	n/a
124.0	0.654885749001551	5	late	dm_task	0.654885749001551	n/a	-21.0	1.0	n/a
124.65488574900155	0.75	5	late	dm_task_post	n/a	n/a	n/a	n/a	n/a
129.5	0.5	5	late	em_task_pre	n/a	n/a	n/a	n/a	n/a
130.0	2.4700784090019	5	late	em_task	n/a	n/a	n/a	n/a	93.0141624006736
132.4700784090019	0.75	5	late	em_task_post	n/a	n/a	n/a	n/a	n/a
140.0	1.5	6	early	stimulus	n/a	15.0	n/a	n/a	n/a
145.5	0.5	6	early	dm_task_pre	n/a	n/a	n/a	n/a	n/a
146.0	0.916993071001343	6	early	dm_task	0.916993071001343	n/a	-21.0	1.0	n/a
146.91699307100134	0.75	6	early	dm_task_post	n/a	n/a	n/a	n/a	n/a
157.5	0.5	6	early	em_task_pre	n/a	n/a	n/a	n/a	n/a
158.0	3.6447556470011016	6	early	em_task	n/a	n/a	n/a	n/a	8.24512578893076
161.6447556470011	0.75	6	early	em_task_post	n/a	n/a	n/a	n/a	n/a
168.0	1.5	7	early	stimulus	n/a	7.5	n/a	n/a	n/a
173.5	0.5	7	early	dm_task_pre	n/a	n/a	n/a	n/a	n/a
174.0	1.00804245700056	7	early	dm_task	1.00804245700056	n/a	-4.0	-1.0	n/a
175.00804245700056	0.75	7	early	dm_task_post	n/a	n/a	n/a	n/a	n/a
185.5	0.5	7	early	em_task_pre	n/a	n/a	n/a	n/a	n/a
186.0	2.852660914999401	7	early	em_task	n/a	n/a	n/a	n/a	9.00229930292903
188.8526609149994	0.75	7	early	em_task_post	n/a	n/a	n/a	n/a	n/a
196.0	1.5	8	early	stimulus	n/a	157.5	n/a	n/a	n/a
201.5	0.5	8	early	dm_task_pre	n/a	n/a	n/a	n/a	n/a
202.0	1.16599067800053	8	early	dm_task	1.16599067800053	n/a	4.0	1.0	n/a
203.16599067800053	0.75	8	early	dm_task_post	n/a	n/a	n/a	n/a	n/a
213.5	0.5	8	early	em_task_pre	n/a	n/a	n/a	n/a	n/a
214.0	2.038017791001	8	early	em_task	n/a	n/a	n/a	n/a	164.963203648098
216.038017791001	0.75	8	early	em_task_post	n/a	n/a	n/a	n/a	n/a
224.0	1.5	9	late	stimulus	n/a	135.0	n/a	n/a	n/a
235.5	0.5	9	late	dm_task_pre	n/a	n/a	n/a	n/a	n/a
236.0	0.569593889002135	9	late	dm_task	0.569593889002135	n/a	-21.0	1.0	n/a
236.56959388900214	0.75	9	late	dm_task_post	n/a	n/a	n/a	n/a	n/a
241.5	0.5	9	late	em_task_pre	n/a	n/a	n/a	n/a	n/a
242.0	2.0024139320012004	9	late	em_task	n/a	n/a	n/a	n/a	153.962826523039
244.0024139320012	0.75	9	late	em_task_post	n/a	n/a	n/a	n/a	n/a
252.0	1.5	10	late	stimulus	n/a	30.0	n/a	n/a	n/a
263.5	0.5	10	late	dm_task_pre	n/a	n/a	n/a	n/a	n/a
264.0	0.710795211001823	10	late	dm_task	0.710795211001823	n/a	4.0	-1.0	n/a
264.7107952110018	0.75	10	late	dm_task_post	n/a	n/a	n/a	n/a	n/a
269.5	0.5	10	late	em_task_pre	n/a	n/a	n/a	n/a	n/a
270.0	2.2762418960010002	10	late	em_task	n/a	n/a	n/a	n/a	19.6381845134141
272.276241896001	0.75	10	late	em_task_post	n/a	n/a	n/a	n/a	n/a
280.0	1.5	11	late	stimulus	n/a	75.0	n/a	n/a	n/a
291.5	0.5	11	late	dm_task_pre	n/a	n/a	n/a	n/a	n/a
292.0	0.904631250999955	11	late	dm_task	0.904631250999955	n/a	0.0	-1.0	n/a
292.90463125099996	0.75	11	late	dm_task_post	n/a	n/a	n/a	n/a	n/a
297.5	0.5	11	late	em_task_pre	n/a	n/a	n/a	n/a	n/a
298.0	3.217238173001501	11	late	em_task	n/a	n/a	n/a	n/a	63.6909324458228
301.2172381730015	0.75	11	late	em_task_post	n/a	n/a	n/a	n/a	n/a
308.0	1.5	12	late	stimulus	n/a	0.0	n/a	n/a	n/a
319.5	0.5	12	late	dm_task_pre	n/a	n/a	n/a	n/a	n/a
320.0	0.996043841001665	12	late	dm_task	0.996043841001665	n/a	4.0	-1.0	n/a
320.99604384100166	0.75	12	late	dm_task_post	n/a	n/a	n/a	n/a	n/a
325.5	0.5	12	late	em_task_pre	n/a	n/a	n/a	n/a	n/a
326.0	3.6423279650006997	12	late	em_task	n/a	n/a	n/a	n/a	5.89604433104398
329.6423279650007	0.75	12	late	em_task_post	n/a	n/a	n/a	n/a	n/a
