onset	duration	trial	trial_type	event_type	response_time	value_stimulus	value_reference	response_decision	response_estimation
0.0	1.5	1	early	stimulus	n/a	0.0	n/a	n/a	n/a
5.5	0.5	1	early	dm_task_pre	n/a	n/a	n/a	n/a	n/a
6.0	0.573475779005094	1	early	dm_task	0.573475779005094	n/a	-21.0	1.0	n/a
6.573475779005094	0.75	1	early	dm_task_post	n/a	n/a	n/a	n/a	n/a
17.5	0.5	1	early	em_task_pre	n/a	n/a	n/a	n/a	n/a
18.0	3.5443431529857	1	early	em_task	n/a	n/a	n/a	n/a	179.878840981129
21.5443431529857	0.75	1	early	em_task_post	n/a	n/a	n/a	n/a	n/a
28.0	1.5	2	early	stimulus	n/a	172.5	n/a	n/a	n/a
33.5	0.5	2	early	dm_task_pre	n/a	n/a	n/a	n/a	n/a
34.0	0.750448401988251	2	early	dm_task	0.750448401988251	n/a	21.0	-1.0	n/a
34.75044840198825	0.75	2	early	dm_task_post	n/a	n/a	n/a	n/a	n/a
45.5	0.5	2	early	em_task_pre	n/a	n/a	n/a	n/a	n/a
46.0	2.2880144509835993	2	early	em_task	n/a	n/a	n/a	n/a	161.874997480836
48.288014450983596	0.75	2	early	em_task_post	n/a	n/a	n/a	n/a	n/a
56.0	1.5	3	late	stimulus	n/a	142.5	n/a	n/a	n/a
67.5	0.5	3	late	dm_task_pre	n/a	n/a	n/a	n/a	n/a
68.0	1.06057210598374	3	late	dm_task	1.06057210598374	n/a	0.0	1.0	n/a
69.06057210598374	0.75	3	late	dm_task_post	n/a	n/a	n/a	n/a	n/a
73.5	0.5	3	late	em_task_pre	n/a	n/a	n/a	n/a	n/a
74.0	3.5463153659948006	3	late	em_task	n/a	n/a	n/a	n/a	146.813484692792
77.5463153659948	0.75	3	late	em_task_post	n/a	n/a	n/a	n/a	n/a
84.0	1.5	4	late	stimulus	n/a	30.0	n/a	n/a	n/a
95.5	0.5	4	late	dm_task_pre	n/a	n/a	n/a	n/a	n/a
96.0	0.703869424003642	4	late	dm_task	0.703869424003642	n/a	0.0	1.0	n/a
96.70386942400364	0.75	4	late	dm_task_post	n/a	n/a	n/a	n/a	n/a
101.5	0.5	4	late	em_task_pre	n/a	n/a	n/a	n/a	n/a
102.0	3.021518888999701	4	late	em_task	n/a	n/a	n/a	n/a	31.0078605990872
105.02151888899971	0.75	4	late	em_task_post	n/a	n/a	n/a	n/a	n/a
112.0	1.5	5	early	stimulus	n/a	157.5	n/a	n/a	n/a
117.5	0.5	5	early	dm_task_pre	n/a	n/a	n/a	n/a	n/a
118.0	1.02570957198623	5	early	dm_task	1.02570957198623	n/a	0.0	-1.0	n/a
119.02570957198623	0.75	5	early	dm_task_post	n/a	n/a	n/a	n/a	n/a
129.5	0.5	5	early	em_task_pre	n/a	n/a	n/a	n/a	n/a
130.0	2.7638470069795993	5	early	em_task	n/a	n/a	n/a	n/a	156.64810066869
132.7638470069796	0.75	5	early	em_task_post	n/a	n/a	n/a	n/a	n/a
140.0	1.5	6	late	stimulus	n/a	165.0	n/a	n/a	n/a
151.5	0.5	6	late	dm_task_pre	n/a	n/a	n/a	n/a	n/a
152.0	0.821070314996177	6	late	dm_task	0.821070314996177	n/a	-4.0	-1.0	n/a
152.82107031499618	0.75	6	late	dm_task_post	n/a	n/a	n/a	n/a	n/a
157.5	0.5	6	late	em_task_pre	n/a	n/a	n/a	n/a	n/a
158.0	2.7075336909910988	6	late	em_task	n/a	n/a	n/a	n/a	155.205477545959
160.7075336909911	0.75	6	late	em_task_post	n/a	n/a	n/a	n/a	n/a
168.0	1.5	7	late	stimulus	n/a	120.0	n/a	n/a	n/a
179.5	0.5	7	late	dm_task_pre	n/a	n/a	n/a	n/a	n/a
180.0	0.49574769497849	7	late	dm_task	0.49574769497849	n/a	-4.0	1.0	n/a
180.4957476949785	0.75	7	late	dm_task_post	n/a	n/a	n/a	n/a	n/a
185.5	0.5	7	late	em_task_pre	n/a	n/a	n/a	n/a	n/a
186.0	3.2835359830060007	7	late	em_task	n/a	n/a	n/a	n/a	120.201792984787
189.283535983006	0.75	7	late	em_task_post	n/a	n/a	n/a	n/a	n/a
196.0	1.5	8	early	stimulus	n/a	112.5	n/a	n/a	n/a
201.5	0.5	8	early	dm_task_pre	n/a	n/a	n/a	n/a	n/a
202.0	0.554963303002296	8	early	dm_task	0.554963303002296	n/a	-4.0	1.0	n/a
202.5549633030023	0.75	8	early	dm_task_post	n/a	n/a	n/a	n/a	n/a
213.5	0.5	8	early	em_task_pre	n/a	n/a	n/a	n/a	n/a
214.0	3.8099718579906003	8	early	em_task	n/a	n/a	n/a	n/a	115.715064455652
217.8099718579906	0.75	8	early	em_task_post	n/a	n/a	n/a	n/a	n/a
224.0	1.5	9	late	stimulus	n/a	22.5	n/a	n/a	n/a
235.5	0.5	9	late	dm_task_pre	n/a	n/a	n/a	n/a	n/a
236.0	0.497782207996352	9	late	dm_task	0.497782207996352	n/a	21.0	-1.0	n/a
236.49778220799635	0.75	9	late	dm_task_post	n/a	n/a	n/a	n/a	n/a
241.5	0.5	9	late	em_task_pre	n/a	n/a	n/a	n/a	n/a
242.0	2.8515285780013	9	late	em_task	n/a	n/a	n/a	n/a	20.634713260457
244.8515285780013	0.75	9	late	em_task_post	n/a	n/a	n/a	n/a	n/a
252.0	1.5	10	early	stimulus	n/a	7.5	n/a	n/a	n/a
257.5	0.5	10	early	dm_task_pre	n/a	n/a	n/a	n/a	n/a
258.0	0.722584511997411	10	early	dm_task	0.722584511997411	n/a	-4.0	1.0	n/a
258.7225845119974	0.75	10	early	dm_task_post	n/a	n/a	n/a	n/a	n/a
269.5	0.5	10	early	em_task_pre	n/a	n/a	n/a	n/a	n/a
270.0	4.5	10	early	em_task	n/a	n/a	n/a	n/a	n/a
274.5	0.75	10	early	em_task_post	n/a	n/a	n/a	n/a	n/a
280.0	1.5	11	early	stimulus	n/a	60.0	n/a	n/a	n/a
285.5	0.5	11	early	dm_task_pre	n/a	n/a	n/a	n/a	n/a
286.0	0.49760562798474	11	early	dm_task	0.49760562798474	n/a	21.0	-1.0	n/a
286.49760562798474	0.75	11	early	dm_task_post	n/a	n/a	n/a	n/a	n/a
297.5	0.5	11	early	em_task_pre	n/a	n/a	n/a	n/a	n/a
298.0	3.836472630006	11	early	em_task	n/a	n/a	n/a	n/a	77.5074623216303
301.836472630006	0.75	11	early	em_task_post	n/a	n/a	n/a	n/a	n/a
308.0	1.5	12	late	stimulus	n/a	75.0	n/a	n/a	n/a
319.5	0.5	12	late	dm_task_pre	n/a	n/a	n/a	n/a	n/a
320.0	0.575837037002202	12	late	dm_task	0.575837037002202	n/a	-4.0	1.0	n/a
320.5758370370022	0.75	12	late	dm_task_post	n/a	n/a	n/a	n/a	n/a
325.5	0.5	12	late	em_task_pre	n/a	n/a	n/a	n/a	n/a
326.0	2.211245215992701	12	late	em_task	n/a	n/a	n/a	n/a	79.4175158716421
328.2112452159927	0.75	12	late	em_task_post	n/a	n/a	n/a	n/a	n/a
