onset	duration	trial	trial_type	event_type	response_time	value_stimulus	value_reference	response_decision	response_estimation
0.0	1.5	1	late	stimulus	n/a	142.5	n/a	n/a	n/a
11.5	0.5	1	late	dm_task_pre	n/a	n/a	n/a	n/a	n/a
12.0	0.743749879999086	1	late	dm_task	0.743749879999086	n/a	0.0	1.0	n/a
12.743749879999086	0.75	1	late	dm_task_post	n/a	n/a	n/a	n/a	n/a
17.5	0.5	1	late	em_task_pre	n/a	n/a	n/a	n/a	n/a
18.0	2.7799986830214003	1	late	em_task	n/a	n/a	n/a	n/a	141.553489907323
20.7799986830214	0.75	1	late	em_task_post	n/a	n/a	n/a	n/a	n/a
28.0	1.5	2	early	stimulus	n/a	97.5	n/a	n/a	n/a
33.5	0.5	2	early	dm_task_pre	n/a	n/a	n/a	n/a	n/a
34.0	0.833728577999864	2	early	dm_task	0.833728577999864	n/a	21.0	-1.0	n/a
34.833728577999864	0.75	2	early	dm_task_post	n/a	n/a	n/a	n/a	n/a
45.5	0.5	2	early	em_task_pre	n/a	n/a	n/a	n/a	n/a
46.0	2.4898666330263985	2	early	em_task	n/a	n/a	n/a	n/a	115.27351686942
48.489866633026395	0.75	2	early	em_task_post	n/a	n/a	n/a	n/a	n/a
56.0	1.5	3	late	stimulus	n/a	112.5	n/a	n/a	n/a
67.5	0.5	3	late	dm_task_pre	n/a	n/a	n/a	n/a	n/a
68.0	1.5	3	late	dm_task	1.72977661402547	n/a	0.0	-1.0	n/a
69.5	0.75	3	late	dm_task_post	n/a	n/a	n/a	n/a	n/a
73.5	0.5	3	late	em_task_pre	n/a	n/a	n/a	n/a	n/a
74.0	3.048777257005	3	late	em_task	n/a	n/a	n/a	n/a	116.378087545152
77.048777257005	0.75	3	late	em_task_post	n/a	n/a	n/a	n/a	n/a
84.0	1.5	4	late	stimulus	n/a	120.0	n/a	n/a	n/a
95.5	0.5	4	late	dm_task_pre	n/a	n/a	n/a	n/a	n/a
96.0	0.57119731901912	4	late	dm_task	0.57119731901912	n/a	21.0	-1.0	n/a
96.57119731901912	0.75	4	late	dm_task_post	n/a	n/a	n/a	n/a	n/a
101.5	0.5	4	late	em_task_pre	n/a	n/a	n/a	n/a	n/a
102.0	2.0574148610176017	4	late	em_task	n/a	n/a	n/a	n/a	121.566778196392
104.0574148610176	0.75	4	late	em_task_post	n/a	n/a	n/a	n/a	n/a
112.0	1.5	5	early	stimulus	n/a	150.0	n/a	n/a	n/a
117.5	0.5	5	early	dm_task_pre	n/a	n/a	n/a	n/a	n/a
118.0	0.594891738001024	5	early	dm_task	0.594891738001024	n/a	21.0	-1.0	n/a
118.59489173800102	0.75	5	early	dm_task_post	n/a	n/a	n/a	n/a	n/a
129.5	0.5	5	early	em_task_pre	n/a	n/a	n/a	n/a	n/a
130.0	4.300612158025601	5	early	em_task	n/a	n/a	n/a	n/a	136.268341451826
134.30061215802561	0.75	5	early	em_task_post	n/a	n/a	n/a	n/a	n/a
140.0	1.5	6	late	stimulus	n/a	75.0	n/a	n/a	n/a
151.5	0.5	6	late	dm_task_pre	n/a	n/a	n/a	n/a	n/a
152.0	0.590169539005728	6	late	dm_task	0.590169539005728	n/a	-21.0	1.0	n/a
152.59016953900573	0.75	6	late	dm_task_post	n/a	n/a	n/a	n/a	n/a
157.5	0.5	6	late	em_task_pre	n/a	n/a	n/a	n/a	n/a
158.0	3.7094563200080017	6	late	em_task	n/a	n/a	n/a	n/a	72.5765041489357
161.709456320008	0.75	6	late	em_task_post	n/a	n/a	n/a	n/a	n/a
168.0	1.5	7	early	stimulus	n/a	157.5	n/a	n/a	n/a
173.5	0.5	7	early	dm_task_pre	n/a	n/a	n/a	n/a	n/a
174.0	0.645944132003933	7	early	dm_task	0.645944132003933	n/a	0.0	1.0	n/a
174.64594413200393	0.75	7	early	dm_task_post	n/a	n/a	n/a	n/a	n/a
185.5	0.5	7	early	em_task_pre	n/a	n/a	n/a	n/a	n/a
186.0	1.9687546560016997	7	early	em_task	n/a	n/a	n/a	n/a	153.589131732679
187.9687546560017	0.75	7	early	em_task_post	n/a	n/a	n/a	n/a	n/a
196.0	1.5	8	early	stimulus	n/a	135.0	n/a	n/a	n/a
201.5	0.5	8	early	dm_task_pre	n/a	n/a	n/a	n/a	n/a
202.0	0.706618305004667	8	early	dm_task	0.706618305004667	n/a	-21.0	1.0	n/a
202.70661830500467	0.75	8	early	dm_task_post	n/a	n/a	n/a	n/a	n/a
213.5	0.5	8	early	em_task_pre	n/a	n/a	n/a	n/a	n/a
214.0	2.2094552770141007	8	early	em_task	n/a	n/a	n/a	n/a	133.234109323446
216.20945527701411	0.75	8	early	em_task_post	n/a	n/a	n/a	n/a	n/a
224.0	1.5	9	early	stimulus	n/a	105.0	n/a	n/a	n/a
229.5	0.5	9	early	dm_task_pre	n/a	n/a	n/a	n/a	n/a
230.0	0.581252422009129	9	early	dm_task	0.581252422009129	n/a	0.0	1.0	n/a
230.58125242200913	0.75	9	early	dm_task_post	n/a	n/a	n/a	n/a	n/a
241.5	0.5	9	early	em_task_pre	n/a	n/a	n/a	n/a	n/a
242.0	3.369494762009701	9	early	em_task	n/a	n/a	n/a	n/a	126.899105585509
245.3694947620097	0.75	9	early	em_task_post	n/a	n/a	n/a	n/a	n/a
252.0	1.5	10	early	stimulus	n/a	60.0	n/a	n/a	n/a
257.5	0.5	10	early	dm_task_pre	n/a	n/a	n/a	n/a	n/a
258.0	0.49044851900544	10	early	dm_task	0.49044851900544	n/a	-21.0	1.0	n/a
258.49044851900544	0.75	10	early	dm_task_post	n/a	n/a	n/a	n/a	n/a
269.5	0.5	10	early	em_task_pre	n/a	n/a	n/a	n/a	n/a
270.0	2.8792178990260986	10	early	em_task	n/a	n/a	n/a	n/a	68.4789452363233
272.8792178990261	0.75	10	early	em_task_post	n/a	n/a	n/a	n/a	n/a
280.0	1.5	11	early	stimulus	n/a	90.0	n/a	n/a	n/a
285.5	0.5	11	early	dm_task_pre	n/a	n/a	n/a	n/a	n/a
286.0	0.69960441000876	11	early	dm_task	0.69960441000876	n/a	-21.0	1.0	n/a
286.69960441000876	0.75	11	early	dm_task_post	n/a	n/a	n/a	n/a	n/a
297.5	0.5	11	early	em_task_pre	n/a	n/a	n/a	n/a	n/a
298.0	2.071006497018999	11	early	em_task	n/a	n/a	n/a	n/a	110.109446037058
300.07100649701897	0.75	11	early	em_task_post	n/a	n/a	n/a	n/a	n/a
308.0	1.5	12	late	stimulus	n/a	82.5	n/a	n/a	n/a
319.5	0.5	12	late	dm_task_pre	n/a	n/a	n/a	n/a	n/a
320.0	0.876523637009086	12	late	dm_task	0.876523637009086	n/a	4.0	1.0	n/a
320.8765236370091	0.75	12	late	dm_task_post	n/a	n/a	n/a	n/a	n/a
325.5	0.5	12	late	em_task_pre	n/a	n/a	n/a	n/a	n/a
326.0	4.197865792026299	12	late	em_task	n/a	n/a	n/a	n/a	109.663161313618
330.1978657920263	0.75	12	late	em_task_post	n/a	n/a	n/a	n/a	n/a
