onset	duration	trial	trial_type	event_type	response_time	value_stimulus	value_reference	response_decision	response_estimation
0.0	1.5	1	late	stimulus	n/a	45.0	n/a	n/a	n/a
11.5	0.5	1	late	dm_task_pre	n/a	n/a	n/a	n/a	n/a
12.0	0.539509160997113	1	late	dm_task	0.539509160997113	n/a	-21.0	1.0	n/a
12.539509160997113	0.75	1	late	dm_task_post	n/a	n/a	n/a	n/a	n/a
17.5	0.5	1	late	em_task_pre	n/a	n/a	n/a	n/a	n/a
18.0	2.0251521710015012	1	late	em_task	n/a	n/a	n/a	n/a	35.7603693645007
20.0251521710015	0.75	1	late	em_task_post	n/a	n/a	n/a	n/a	n/a
28.0	1.5	2	early	stimulus	n/a	105.0	n/a	n/a	n/a
33.5	0.5	2	early	dm_task_pre	n/a	n/a	n/a	n/a	n/a
34.0	0.662068177000037	2	early	dm_task	0.662068177000037	n/a	0.0	1.0	n/a
34.66206817700004	0.75	2	early	dm_task_post	n/a	n/a	n/a	n/a	n/a
45.5	0.5	2	early	em_task_pre	n/a	n/a	n/a	n/a	n/a
46.0	2.4323691949976016	2	early	em_task	n/a	n/a	n/a	n/a	106.945540174703
48.432369194997605	0.75	2	early	em_task_post	n/a	n/a	n/a	n/a	n/a
56.0	1.5	3	early	stimulus	n/a	135.0	n/a	n/a	n/a
61.5	0.5	3	early	dm_task_pre	n/a	n/a	n/a	n/a	n/a
62.0	0.852094906003913	3	early	dm_task	0.852094906003913	n/a	-4.0	1.0	n/a
62.85209490600391	0.75	3	early	dm_task_post	n/a	n/a	n/a	n/a	n/a
73.5	0.5	3	early	em_task_pre	n/a	n/a	n/a	n/a	n/a
74.0	1.8551312089985004	3	early	em_task	n/a	n/a	n/a	n/a	144.63993213095
75.8551312089985	0.75	3	early	em_task_post	n/a	n/a	n/a	n/a	n/a
84.0	1.5	4	late	stimulus	n/a	82.5	n/a	n/a	n/a
95.5	0.5	4	late	dm_task_pre	n/a	n/a	n/a	n/a	n/a
96.0	0.587386790997698	4	late	dm_task	0.587386790997698	n/a	4.0	-1.0	n/a
96.5873867909977	0.75	4	late	dm_task_post	n/a	n/a	n/a	n/a	n/a
101.5	0.5	4	late	em_task_pre	n/a	n/a	n/a	n/a	n/a
102.0	1.7789312829990997	4	late	em_task	n/a	n/a	n/a	n/a	77.1571996163883
103.7789312829991	0.75	4	late	em_task_post	n/a	n/a	n/a	n/a	n/a
112.0	1.5	5	early	stimulus	n/a	120.0	n/a	n/a	n/a
117.5	0.5	5	early	dm_task_pre	n/a	n/a	n/a	n/a	n/a
118.0	0.932899970997823	5	early	dm_task	0.932899970997823	n/a	0.0	1.0	n/a
118.93289997099782	0.75	5	early	dm_task_post	n/a	n/a	n/a	n/a	n/a
129.5	0.5	5	early	em_task_pre	n/a	n/a	n/a	n/a	n/a
130.0	1.2243286699958986	5	early	em_task	n/a	n/a	n/a	n/a	121.842287400674
131.22432866999588	0.75	5	early	em_task_post	n/a	n/a	n/a	n/a	n/a
140.0	1.5	6	late	stimulus	n/a	97.5	n/a	n/a	n/a
151.5	0.5	6	late	dm_task_pre	n/a	n/a	n/a	n/a	n/a
152.0	1.17824169099913	6	late	dm_task	1.17824169099913	n/a	0.0	-1.0	n/a
153.17824169099913	0.75	6	late	dm_task_post	n/a	n/a	n/a	n/a	n/a
157.5	0.5	6	late	em_task_pre	n/a	n/a	n/a	n/a	n/a
158.0	1.8927208340028017	6	late	em_task	n/a	n/a	n/a	n/a	96.8388757889308
159.8927208340028	0.75	6	late	em_task_post	n/a	n/a	n/a	n/a	n/a
168.0	1.5	7	early	stimulus	n/a	150.0	n/a	n/a	n/a
173.5	0.5	7	early	dm_task_pre	n/a	n/a	n/a	n/a	n/a
174.0	0.71769468599814	7	early	dm_task	0.71769468599814	n/a	4.0	-1.0	n/a
174.71769468599814	0.75	7	early	dm_task_post	n/a	n/a	n/a	n/a	n/a
185.5	0.5	7	early	em_task_pre	n/a	n/a	n/a	n/a	n/a
186.0	1.8394291209988012	7	early	em_task	n/a	n/a	n/a	n/a	155.955424302929
187.8394291209988	0.75	7	early	em_task_post	n/a	n/a	n/a	n/a	n/a
196.0	1.5	8	late	stimulus	n/a	172.5	n/a	n/a	n/a
207.5	0.5	8	late	dm_task_pre	n/a	n/a	n/a	n/a	n/a
208.0	0.765320057995268	8	late	dm_task	0.765320057995268	n/a	0.0	-1.0	n/a
208.76532005799527	0.75	8	late	dm_task_post	n/a	n/a	n/a	n/a	n/a
213.5	0.5	8	late	em_task_pre	n/a	n/a	n/a	n/a	n/a
214.0	1.7723484540038008	8	late	em_task	n/a	n/a	n/a	n/a	167.775703648098
215.7723484540038	0.75	8	late	em_task_post	n/a	n/a	n/a	n/a	n/a
224.0	1.5	9	early	stimulus	n/a	75.0	n/a	n/a	n/a
229.5	0.5	9	early	dm_task_pre	n/a	n/a	n/a	n/a	n/a
230.0	0.928092411995749	9	early	dm_task	0.928092411995749	n/a	-4.0	-1.0	n/a
230.92809241199575	0.75	9	early	dm_task_post	n/a	n/a	n/a	n/a	n/a
241.5	0.5	9	early	em_task_pre	n/a	n/a	n/a	n/a	n/a
242.0	2.8970116510026998	9	early	em_task	n/a	n/a	n/a	n/a	61.1503265230392
244.89701165100269	0.75	9	early	em_task_post	n/a	n/a	n/a	n/a	n/a
252.0	1.5	10	early	stimulus	n/a	60.0	n/a	n/a	n/a
257.5	0.5	10	early	dm_task_pre	n/a	n/a	n/a	n/a	n/a
258.0	0.615941640993697	10	early	dm_task	0.615941640993697	n/a	21.0	-1.0	n/a
258.6159416409937	0.75	10	early	dm_task_post	n/a	n/a	n/a	n/a	n/a
269.5	0.5	10	early	em_task_pre	n/a	n/a	n/a	n/a	n/a
270.0	2.3364443519968	10	early	em_task	n/a	n/a	n/a	n/a	47.0600595134141
272.3364443519968	0.75	10	early	em_task_post	n/a	n/a	n/a	n/a	n/a
280.0	1.5	11	early	stimulus	n/a	90.0	n/a	n/a	n/a
285.5	0.5	11	early	dm_task_pre	n/a	n/a	n/a	n/a	n/a
286.0	0.872688208997715	11	early	dm_task	0.872688208997715	n/a	-4.0	1.0	n/a
286.8726882089977	0.75	11	early	dm_task_post	n/a	n/a	n/a	n/a	n/a
297.5	0.5	11	early	em_task_pre	n/a	n/a	n/a	n/a	n/a
298.0	3.543492605996999	11	early	em_task	n/a	n/a	n/a	n/a	86.8940574458228
301.543492605997	0.75	11	early	em_task_post	n/a	n/a	n/a	n/a	n/a
308.0	1.5	12	early	stimulus	n/a	67.5	n/a	n/a	n/a
313.5	0.5	12	early	dm_task_pre	n/a	n/a	n/a	n/a	n/a
314.0	0.65166428599332	12	early	dm_task	0.65166428599332	n/a	4.0	-1.0	n/a
314.6516642859933	0.75	12	early	dm_task_post	n/a	n/a	n/a	n/a	n/a
325.5	0.5	12	early	em_task_pre	n/a	n/a	n/a	n/a	n/a
326.0	2.216709098996901	12	early	em_task	n/a	n/a	n/a	n/a	58.630419331044
328.2167090989969	0.75	12	early	em_task_post	n/a	n/a	n/a	n/a	n/a
