onset	duration	trial	trial_type	event_type	response_time	value_stimulus	value_reference	response_decision	response_estimation
0.0	1.5	1	early	stimulus	n/a	90.0	n/a	n/a	n/a
5.5	0.5	1	early	dm_task_pre	n/a	n/a	n/a	n/a	n/a
6.0	1.06115045212209	1	early	dm_task	1.06115045212209	n/a	-4.0	-1.0	n/a
7.0611504521220905	0.75	1	early	dm_task_post	n/a	n/a	n/a	n/a	n/a
17.5	0.5	1	early	em_task_pre	n/a	n/a	n/a	n/a	n/a
18.0	2.8232878260314003	1	early	em_task	n/a	n/a	n/a	n/a	82.1746948431551
20.8232878260314	0.75	1	early	em_task_post	n/a	n/a	n/a	n/a	n/a
28.0	1.5	2	late	stimulus	n/a	75.0	n/a	n/a	n/a
39.5	0.5	2	late	dm_task_pre	n/a	n/a	n/a	n/a	n/a
40.0	0.898819060996175	2	late	dm_task	0.898819060996175	n/a	-4.0	-1.0	n/a
40.898819060996175	0.75	2	late	dm_task_post	n/a	n/a	n/a	n/a	n/a
45.5	0.5	2	late	em_task_pre	n/a	n/a	n/a	n/a	n/a
46.0	3.278665867168499	2	late	em_task	n/a	n/a	n/a	n/a	71.932059741612
49.2786658671685	0.75	2	late	em_task_post	n/a	n/a	n/a	n/a	n/a
56.0	1.5	3	early	stimulus	n/a	150.0	n/a	n/a	n/a
61.5	0.5	3	early	dm_task_pre	n/a	n/a	n/a	n/a	n/a
62.0	0.556791420094669	3	early	dm_task	0.556791420094669	n/a	-21.0	1.0	n/a
62.55679142009467	0.75	3	early	dm_task_post	n/a	n/a	n/a	n/a	n/a
73.5	0.5	3	early	em_task_pre	n/a	n/a	n/a	n/a	n/a
74.0	2.952041934244299	3	early	em_task	n/a	n/a	n/a	n/a	153.011994275546
76.9520419342443	0.75	3	early	em_task_post	n/a	n/a	n/a	n/a	n/a
84.0	1.5	4	late	stimulus	n/a	105.0	n/a	n/a	n/a
95.5	0.5	4	late	dm_task_pre	n/a	n/a	n/a	n/a	n/a
96.0	0.811347239185125	4	late	dm_task	0.811347239185125	n/a	0.0	1.0	n/a
96.81134723918512	0.75	4	late	dm_task_post	n/a	n/a	n/a	n/a	n/a
101.5	0.5	4	late	em_task_pre	n/a	n/a	n/a	n/a	n/a
102.0	3.4922008789143995	4	late	em_task	n/a	n/a	n/a	n/a	124.589937959819
105.4922008789144	0.75	4	late	em_task_post	n/a	n/a	n/a	n/a	n/a
112.0	1.5	5	late	stimulus	n/a	135.0	n/a	n/a	n/a
123.5	0.5	5	late	dm_task_pre	n/a	n/a	n/a	n/a	n/a
124.0	0.568905286956578	5	late	dm_task	0.568905286956578	n/a	21.0	-1.0	n/a
124.56890528695658	0.75	5	late	dm_task_post	n/a	n/a	n/a	n/a	n/a
129.5	0.5	5	late	em_task_pre	n/a	n/a	n/a	n/a	n/a
130.0	2.081452786922501	5	late	em_task	n/a	n/a	n/a	n/a	141.913429398625
132.0814527869225	0.75	5	late	em_task_post	n/a	n/a	n/a	n/a	n/a
140.0	1.5	6	early	stimulus	n/a	127.5	n/a	n/a	n/a
145.5	0.5	6	early	dm_task_pre	n/a	n/a	n/a	n/a	n/a
146.0	0.71122390916571	6	early	dm_task	0.71122390916571	n/a	-4.0	1.0	n/a
146.7112239091657	0.75	6	early	dm_task_post	n/a	n/a	n/a	n/a	n/a
157.5	0.5	6	early	em_task_pre	n/a	n/a	n/a	n/a	n/a
158.0	3.638677367009201	6	early	em_task	n/a	n/a	n/a	n/a	152.211664751727
161.6386773670092	0.75	6	early	em_task_post	n/a	n/a	n/a	n/a	n/a
168.0	1.5	7	late	stimulus	n/a	172.5	n/a	n/a	n/a
179.5	0.5	7	late	dm_task_pre	n/a	n/a	n/a	n/a	n/a
180.0	0.631331895012408	7	late	dm_task	0.631331895012408	n/a	4.0	-1.0	n/a
180.6313318950124	0.75	7	late	dm_task_post	n/a	n/a	n/a	n/a	n/a
185.5	0.5	7	late	em_task_pre	n/a	n/a	n/a	n/a	n/a
186.0	4.5	7	late	em_task	n/a	n/a	n/a	n/a	n/a
190.5	0.75	7	late	em_task_post	n/a	n/a	n/a	n/a	n/a
196.0	1.5	8	early	stimulus	n/a	60.0	n/a	n/a	n/a
201.5	0.5	8	early	dm_task_pre	n/a	n/a	n/a	n/a	n/a
202.0	0.939142681192607	8	early	dm_task	0.939142681192607	n/a	-4.0	-1.0	n/a
202.9391426811926	0.75	8	early	dm_task_post	n/a	n/a	n/a	n/a	n/a
213.5	0.5	8	early	em_task_pre	n/a	n/a	n/a	n/a	n/a
214.0	2.0846681152469984	8	early	em_task	n/a	n/a	n/a	n/a	46.4216740475466
216.08466811524698	0.75	8	early	em_task_post	n/a	n/a	n/a	n/a	n/a
224.0	1.5	9	late	stimulus	n/a	82.5	n/a	n/a	n/a
235.5	0.5	9	late	dm_task_pre	n/a	n/a	n/a	n/a	n/a
236.0	0.427467707078904	9	late	dm_task	0.427467707078904	n/a	0.0	-1.0	n/a
236.4274677070789	0.75	9	late	dm_task_post	n/a	n/a	n/a	n/a	n/a
241.5	0.5	9	late	em_task_pre	n/a	n/a	n/a	n/a	n/a
242.0	2.5752793150023017	9	late	em_task	n/a	n/a	n/a	n/a	67.2858320337553
244.5752793150023	0.75	9	late	em_task_post	n/a	n/a	n/a	n/a	n/a
252.0	1.5	10	late	stimulus	n/a	120.0	n/a	n/a	n/a
263.5	0.5	10	late	dm_task_pre	n/a	n/a	n/a	n/a	n/a
264.0	0.833314963150769	10	late	dm_task	0.833314963150769	n/a	-4.0	1.0	n/a
264.83331496315077	0.75	10	late	dm_task_post	n/a	n/a	n/a	n/a	n/a
269.5	0.5	10	late	em_task_pre	n/a	n/a	n/a	n/a	n/a
270.0	3.9471318819560004	10	late	em_task	n/a	n/a	n/a	n/a	140.349480518103
273.947131881956	0.75	10	late	em_task_post	n/a	n/a	n/a	n/a	n/a
280.0	1.5	11	early	stimulus	n/a	67.5	n/a	n/a	n/a
285.5	0.5	11	early	dm_task_pre	n/a	n/a	n/a	n/a	n/a
286.0	0.560079866088927	11	early	dm_task	0.560079866088927	n/a	21.0	-1.0	n/a
286.5600798660889	0.75	11	early	dm_task_post	n/a	n/a	n/a	n/a	n/a
297.5	0.5	11	early	em_task_pre	n/a	n/a	n/a	n/a	n/a
298.0	2.7370522310956993	11	early	em_task	n/a	n/a	n/a	n/a	68.2679206154292
300.7370522310957	0.75	11	early	em_task_post	n/a	n/a	n/a	n/a	n/a
308.0	1.5	12	early	stimulus	n/a	30.0	n/a	n/a	n/a
313.5	0.5	12	early	dm_task_pre	n/a	n/a	n/a	n/a	n/a
314.0	0.582850372884423	12	early	dm_task	0.582850372884423	n/a	4.0	-1.0	n/a
314.5828503728844	0.75	12	early	dm_task_post	n/a	n/a	n/a	n/a	n/a
325.5	0.5	12	early	em_task_pre	n/a	n/a	n/a	n/a	n/a
326.0	3.4941344000399006	12	early	em_task	n/a	n/a	n/a	n/a	36.4700434047365
329.4941344000399	0.75	12	early	em_task_post	n/a	n/a	n/a	n/a	n/a
