onset	duration	trial	trial_type	event_type	response_time	value_stimulus	value_reference	response_decision	response_estimation
0.0	1.5	1	late	stimulus	n/a	22.5	n/a	n/a	n/a
11.5	0.5	1	late	dm_task_pre	n/a	n/a	n/a	n/a	n/a
12.0	0.762542702024803	1	late	dm_task	0.762542702024803	n/a	0.0	1.0	n/a
12.762542702024803	0.75	1	late	dm_task_post	n/a	n/a	n/a	n/a	n/a
17.5	0.5	1	late	em_task_pre	n/a	n/a	n/a	n/a	n/a
18.0	2.2142783490125986	1	late	em_task	n/a	n/a	n/a	n/a	34.2057353694181
20.2142783490126	0.75	1	late	em_task_post	n/a	n/a	n/a	n/a	n/a
28.0	1.5	2	early	stimulus	n/a	45.0	n/a	n/a	n/a
33.5	0.5	2	early	dm_task_pre	n/a	n/a	n/a	n/a	n/a
34.0	0.753780575003475	2	early	dm_task	0.753780575003475	n/a	4.0	-1.0	n/a
34.753780575003475	0.75	2	early	dm_task_post	n/a	n/a	n/a	n/a	n/a
45.5	0.5	2	early	em_task_pre	n/a	n/a	n/a	n/a	n/a
46.0	3.6071626610063987	2	early	em_task	n/a	n/a	n/a	n/a	52.8346329648322
49.6071626610064	0.75	2	early	em_task_post	n/a	n/a	n/a	n/a	n/a
56.0	1.5	3	early	stimulus	n/a	52.5	n/a	n/a	n/a
61.5	0.5	3	early	dm_task_pre	n/a	n/a	n/a	n/a	n/a
62.0	0.596658477006713	3	early	dm_task	0.596658477006713	n/a	21.0	1.0	n/a
62.59665847700671	0.75	3	early	dm_task_post	n/a	n/a	n/a	n/a	n/a
73.5	0.5	3	early	em_task_pre	n/a	n/a	n/a	n/a	n/a
74.0	3.3344321880139987	3	early	em_task	n/a	n/a	n/a	n/a	52.717100512742
77.334432188014	0.75	3	early	em_task_post	n/a	n/a	n/a	n/a	n/a
84.0	1.5	4	late	stimulus	n/a	172.5	n/a	n/a	n/a
95.5	0.5	4	late	dm_task_pre	n/a	n/a	n/a	n/a	n/a
96.0	0.540487366000889	4	late	dm_task	0.540487366000889	n/a	21.0	-1.0	n/a
96.54048736600089	0.75	4	late	dm_task_post	n/a	n/a	n/a	n/a	n/a
101.5	0.5	4	late	em_task_pre	n/a	n/a	n/a	n/a	n/a
102.0	3.0258785390178993	4	late	em_task	n/a	n/a	n/a	n/a	163.130299674561
105.0258785390179	0.75	4	late	em_task_post	n/a	n/a	n/a	n/a	n/a
112.0	1.5	5	late	stimulus	n/a	7.5	n/a	n/a	n/a
123.5	0.5	5	late	dm_task_pre	n/a	n/a	n/a	n/a	n/a
124.0	0.649443836009596	5	late	dm_task	0.649443836009596	n/a	-4.0	1.0	n/a
124.6494438360096	0.75	5	late	dm_task_post	n/a	n/a	n/a	n/a	n/a
129.5	0.5	5	late	em_task_pre	n/a	n/a	n/a	n/a	n/a
130.0	2.8522779970080983	5	late	em_task	n/a	n/a	n/a	n/a	33.3437524855118
132.8522779970081	0.75	5	late	em_task_post	n/a	n/a	n/a	n/a	n/a
140.0	1.5	6	early	stimulus	n/a	135.0	n/a	n/a	n/a
145.5	0.5	6	early	dm_task_pre	n/a	n/a	n/a	n/a	n/a
146.0	1.25636183301685	6	early	dm_task	1.25636183301685	n/a	0.0	-1.0	n/a
147.25636183301685	0.75	6	early	dm_task_post	n/a	n/a	n/a	n/a	n/a
157.5	0.5	6	early	em_task_pre	n/a	n/a	n/a	n/a	n/a
158.0	1.9439129180099997	6	early	em_task	n/a	n/a	n/a	n/a	137.497637175865
159.94391291801	0.75	6	early	em_task_post	n/a	n/a	n/a	n/a	n/a
168.0	1.5	7	early	stimulus	n/a	37.5	n/a	n/a	n/a
173.5	0.5	7	early	dm_task_pre	n/a	n/a	n/a	n/a	n/a
174.0	0.615635627997108	7	early	dm_task	0.615635627997108	n/a	21.0	-1.0	n/a
174.6156356279971	0.75	7	early	dm_task_post	n/a	n/a	n/a	n/a	n/a
185.5	0.5	7	early	em_task_pre	n/a	n/a	n/a	n/a	n/a
186.0	4.103061113011801	7	early	em_task	n/a	n/a	n/a	n/a	38.111013258743
190.1030611130118	0.75	7	early	em_task_post	n/a	n/a	n/a	n/a	n/a
196.0	1.5	8	early	stimulus	n/a	82.5	n/a	n/a	n/a
201.5	0.5	8	early	dm_task_pre	n/a	n/a	n/a	n/a	n/a
202.0	1.17505600501318	8	early	dm_task	1.17505600501318	n/a	-4.0	-1.0	n/a
203.17505600501318	0.75	8	early	dm_task_post	n/a	n/a	n/a	n/a	n/a
213.5	0.5	8	early	em_task_pre	n/a	n/a	n/a	n/a	n/a
214.0	3.5128124160109984	8	early	em_task	n/a	n/a	n/a	n/a	75.2381410603765
217.512812416011	0.75	8	early	em_task_post	n/a	n/a	n/a	n/a	n/a
224.0	1.5	9	late	stimulus	n/a	112.5	n/a	n/a	n/a
235.5	0.5	9	late	dm_task_pre	n/a	n/a	n/a	n/a	n/a
236.0	0.569261474011	9	late	dm_task	0.569261474011	n/a	-4.0	1.0	n/a
236.569261474011	0.75	9	late	dm_task_post	n/a	n/a	n/a	n/a	n/a
241.5	0.5	9	late	em_task_pre	n/a	n/a	n/a	n/a	n/a
242.0	3.6717272730019985	9	late	em_task	n/a	n/a	n/a	n/a	119.442031680279
245.671727273002	0.75	9	late	em_task_post	n/a	n/a	n/a	n/a	n/a
252.0	1.5	10	late	stimulus	n/a	127.5	n/a	n/a	n/a
263.5	0.5	10	late	dm_task_pre	n/a	n/a	n/a	n/a	n/a
264.0	0.544910311000422	10	late	dm_task	0.544910311000422	n/a	-21.0	1.0	n/a
264.5449103110004	0.75	10	late	dm_task_post	n/a	n/a	n/a	n/a	n/a
269.5	0.5	10	late	em_task_pre	n/a	n/a	n/a	n/a	n/a
270.0	1.7316822739958013	10	late	em_task	n/a	n/a	n/a	n/a	135.223968834324
271.73168227399583	0.75	10	late	em_task_post	n/a	n/a	n/a	n/a	n/a
280.0	1.5	11	late	stimulus	n/a	0.0	n/a	n/a	n/a
291.5	0.5	11	late	dm_task_pre	n/a	n/a	n/a	n/a	n/a
292.0	0.437120512011461	11	late	dm_task	0.437120512011461	n/a	21.0	-1.0	n/a
292.43712051201146	0.75	11	late	dm_task_post	n/a	n/a	n/a	n/a	n/a
297.5	0.5	11	late	em_task_pre	n/a	n/a	n/a	n/a	n/a
298.0	4.5	11	late	em_task	n/a	n/a	n/a	n/a	n/a
302.5	0.75	11	late	em_task_post	n/a	n/a	n/a	n/a	n/a
308.0	1.5	12	late	stimulus	n/a	157.5	n/a	n/a	n/a
319.5	0.5	12	late	dm_task_pre	n/a	n/a	n/a	n/a	n/a
320.0	0.713073616003385	12	late	dm_task	0.713073616003385	n/a	-4.0	1.0	n/a
320.7130736160034	0.75	12	late	dm_task_post	n/a	n/a	n/a	n/a	n/a
325.5	0.5	12	late	em_task_pre	n/a	n/a	n/a	n/a	n/a
326.0	3.4994901180035	12	late	em_task	n/a	n/a	n/a	n/a	158.4936724462
329.4994901180035	0.75	12	late	em_task_post	n/a	n/a	n/a	n/a	n/a
