onset	duration	trial	trial_type	event_type	response_time	value_stimulus	value_reference	response_decision	response_estimation
0.0	1.5	1	late	stimulus	n/a	157.5	n/a	n/a	n/a
11.5	0.5	1	late	dm_task_pre	n/a	n/a	n/a	n/a	n/a
12.0	0.653784487993107	1	late	dm_task	0.653784487993107	n/a	-21.0	1.0	n/a
12.653784487993107	0.75	1	late	dm_task_post	n/a	n/a	n/a	n/a	n/a
17.5	0.5	1	late	em_task_pre	n/a	n/a	n/a	n/a	n/a
18.0	3.6547494120022996	1	late	em_task	n/a	n/a	n/a	n/a	152.626729987982
21.6547494120023	0.75	1	late	em_task_post	n/a	n/a	n/a	n/a	n/a
28.0	1.5	2	early	stimulus	n/a	105.0	n/a	n/a	n/a
33.5	0.5	2	early	dm_task_pre	n/a	n/a	n/a	n/a	n/a
34.0	0.575501932995394	2	early	dm_task	0.575501932995394	n/a	-21.0	1.0	n/a
34.575501932995394	0.75	2	early	dm_task_post	n/a	n/a	n/a	n/a	n/a
45.5	0.5	2	early	em_task_pre	n/a	n/a	n/a	n/a	n/a
46.0	3.0976598349953015	2	early	em_task	n/a	n/a	n/a	n/a	135.464891073159
49.0976598349953	0.75	2	early	em_task_post	n/a	n/a	n/a	n/a	n/a
56.0	1.5	3	late	stimulus	n/a	112.5	n/a	n/a	n/a
67.5	0.5	3	late	dm_task_pre	n/a	n/a	n/a	n/a	n/a
68.0	0.721250072994735	3	late	dm_task	0.721250072994735	n/a	-21.0	1.0	n/a
68.72125007299474	0.75	3	late	dm_task_post	n/a	n/a	n/a	n/a	n/a
73.5	0.5	3	late	em_task_pre	n/a	n/a	n/a	n/a	n/a
74.0	3.6311443879968017	3	late	em_task	n/a	n/a	n/a	n/a	122.434011176244
77.6311443879968	0.75	3	late	em_task_post	n/a	n/a	n/a	n/a	n/a
84.0	1.5	4	early	stimulus	n/a	15.0	n/a	n/a	n/a
89.5	0.5	4	early	dm_task_pre	n/a	n/a	n/a	n/a	n/a
90.0	0.628013748995727	4	early	dm_task	0.628013748995727	n/a	0.0	1.0	n/a
90.62801374899573	0.75	4	early	dm_task_post	n/a	n/a	n/a	n/a	n/a
101.5	0.5	4	early	em_task_pre	n/a	n/a	n/a	n/a	n/a
102.0	2.9829675939982003	4	early	em_task	n/a	n/a	n/a	n/a	27.4839322885696
104.9829675939982	0.75	4	early	em_task_post	n/a	n/a	n/a	n/a	n/a
112.0	1.5	5	early	stimulus	n/a	172.5	n/a	n/a	n/a
117.5	0.5	5	early	dm_task_pre	n/a	n/a	n/a	n/a	n/a
118.0	0.619807267998112	5	early	dm_task	0.619807267998112	n/a	4.0	-1.0	n/a
118.61980726799811	0.75	5	early	dm_task_post	n/a	n/a	n/a	n/a	n/a
129.5	0.5	5	early	em_task_pre	n/a	n/a	n/a	n/a	n/a
130.0	2.6260568180004995	5	early	em_task	n/a	n/a	n/a	n/a	170.874223169821
132.6260568180005	0.75	5	early	em_task_post	n/a	n/a	n/a	n/a	n/a
140.0	1.5	6	late	stimulus	n/a	165.0	n/a	n/a	n/a
151.5	0.5	6	late	dm_task_pre	n/a	n/a	n/a	n/a	n/a
152.0	0.682337627004017	6	late	dm_task	0.682337627004017	n/a	4.0	-1.0	n/a
152.68233762700402	0.75	6	late	dm_task_post	n/a	n/a	n/a	n/a	n/a
157.5	0.5	6	late	em_task_pre	n/a	n/a	n/a	n/a	n/a
158.0	2.767970136003001	6	late	em_task	n/a	n/a	n/a	n/a	159.283021686264
160.767970136003	0.75	6	late	em_task_post	n/a	n/a	n/a	n/a	n/a
168.0	1.5	7	late	stimulus	n/a	30.0	n/a	n/a	n/a
179.5	0.5	7	late	dm_task_pre	n/a	n/a	n/a	n/a	n/a
180.0	0.956868327994016	7	late	dm_task	0.956868327994016	n/a	4.0	1.0	n/a
180.95686832799402	0.75	7	late	dm_task_post	n/a	n/a	n/a	n/a	n/a
185.5	0.5	7	late	em_task_pre	n/a	n/a	n/a	n/a	n/a
186.0	3.6099813460023	7	late	em_task	n/a	n/a	n/a	n/a	51.300130256755
189.60998134600231	0.75	7	late	em_task_post	n/a	n/a	n/a	n/a	n/a
196.0	1.5	8	late	stimulus	n/a	75.0	n/a	n/a	n/a
207.5	0.5	8	late	dm_task_pre	n/a	n/a	n/a	n/a	n/a
208.0	0.884850532995188	8	late	dm_task	0.884850532995188	n/a	0.0	-1.0	n/a
208.8848505329952	0.75	8	late	dm_task_post	n/a	n/a	n/a	n/a	n/a
213.5	0.5	8	late	em_task_pre	n/a	n/a	n/a	n/a	n/a
214.0	2.702780427003699	8	late	em_task	n/a	n/a	n/a	n/a	68.535959989405
216.7027804270037	0.75	8	late	em_task_post	n/a	n/a	n/a	n/a	n/a
224.0	1.5	9	late	stimulus	n/a	150.0	n/a	n/a	n/a
235.5	0.5	9	late	dm_task_pre	n/a	n/a	n/a	n/a	n/a
236.0	0.607657194996136	9	late	dm_task	0.607657194996136	n/a	-21.0	1.0	n/a
236.60765719499614	0.75	9	late	dm_task_post	n/a	n/a	n/a	n/a	n/a
241.5	0.5	9	late	em_task_pre	n/a	n/a	n/a	n/a	n/a
242.0	3.7289459040039006	9	late	em_task	n/a	n/a	n/a	n/a	148.238644630862
245.7289459040039	0.75	9	late	em_task_post	n/a	n/a	n/a	n/a	n/a
252.0	1.5	10	early	stimulus	n/a	127.5	n/a	n/a	n/a
257.5	0.5	10	early	dm_task_pre	n/a	n/a	n/a	n/a	n/a
258.0	1.5	10	early	dm_task	n/a	n/a	4.0	n/a	n/a
259.5	0.75	10	early	dm_task_post	n/a	n/a	n/a	n/a	n/a
269.5	0.5	10	early	em_task_pre	n/a	n/a	n/a	n/a	n/a
270.0	2.2371131679974	10	early	em_task	n/a	n/a	n/a	n/a	142.888881767301
272.2371131679974	0.75	10	early	em_task_post	n/a	n/a	n/a	n/a	n/a
280.0	1.5	11	early	stimulus	n/a	22.5	n/a	n/a	n/a
285.5	0.5	11	early	dm_task_pre	n/a	n/a	n/a	n/a	n/a
286.0	0.658660960994894	11	early	dm_task	0.658660960994894	n/a	0.0	1.0	n/a
286.6586609609949	0.75	11	early	dm_task_post	n/a	n/a	n/a	n/a	n/a
297.5	0.5	11	early	em_task_pre	n/a	n/a	n/a	n/a	n/a
298.0	2.8139898100052996	11	early	em_task	n/a	n/a	n/a	n/a	40.3174523858286
300.8139898100053	0.75	11	early	em_task_post	n/a	n/a	n/a	n/a	n/a
308.0	1.5	12	late	stimulus	n/a	142.5	n/a	n/a	n/a
319.5	0.5	12	late	dm_task_pre	n/a	n/a	n/a	n/a	n/a
320.0	0.77046542300377	12	late	dm_task	0.77046542300377	n/a	4.0	-1.0	n/a
320.77046542300377	0.75	12	late	dm_task_post	n/a	n/a	n/a	n/a	n/a
325.5	0.5	12	late	em_task_pre	n/a	n/a	n/a	n/a	n/a
326.0	2.0228955250059	12	late	em_task	n/a	n/a	n/a	n/a	135.438646402587
328.0228955250059	0.75	12	late	em_task_post	n/a	n/a	n/a	n/a	n/a
