onset	duration	trial	trial_type	event_type	response_time	value_stimulus	value_reference	response_decision	response_estimation
0.0	1.5	1	early	stimulus	n/a	90.0	n/a	n/a	n/a
5.5	0.5	1	early	dm_task_pre	n/a	n/a	n/a	n/a	n/a
6.0	0.560906571001397	1	early	dm_task	0.560906571001397	n/a	21.0	-1.0	n/a
6.5609065710013965	0.75	1	early	dm_task_post	n/a	n/a	n/a	n/a	n/a
17.5	0.5	1	early	em_task_pre	n/a	n/a	n/a	n/a	n/a
18.0	1.9693143800104984	1	early	em_task	n/a	n/a	n/a	n/a	79.8406098974947
19.9693143800105	0.75	1	early	em_task_post	n/a	n/a	n/a	n/a	n/a
28.0	1.5	2	late	stimulus	n/a	165.0	n/a	n/a	n/a
39.5	0.5	2	late	dm_task_pre	n/a	n/a	n/a	n/a	n/a
40.0	0.858293420009431	2	late	dm_task	0.858293420009431	n/a	0.0	-1.0	n/a
40.85829342000943	0.75	2	late	dm_task_post	n/a	n/a	n/a	n/a	n/a
45.5	0.5	2	late	em_task_pre	n/a	n/a	n/a	n/a	n/a
46.0	2.9053548490046985	2	late	em_task	n/a	n/a	n/a	n/a	143.73202505186
48.905354849004695	0.75	2	late	em_task_post	n/a	n/a	n/a	n/a	n/a
56.0	1.5	3	late	stimulus	n/a	45.0	n/a	n/a	n/a
67.5	0.5	3	late	dm_task_pre	n/a	n/a	n/a	n/a	n/a
68.0	0.694177868004772	3	late	dm_task	0.694177868004772	n/a	-4.0	1.0	n/a
68.69417786800477	0.75	3	late	dm_task_post	n/a	n/a	n/a	n/a	n/a
73.5	0.5	3	late	em_task_pre	n/a	n/a	n/a	n/a	n/a
74.0	2.360001219000001	3	late	em_task	n/a	n/a	n/a	n/a	46.4310649555261
76.360001219	0.75	3	late	em_task_post	n/a	n/a	n/a	n/a	n/a
84.0	1.5	4	late	stimulus	n/a	127.5	n/a	n/a	n/a
95.5	0.5	4	late	dm_task_pre	n/a	n/a	n/a	n/a	n/a
96.0	0.743189628003165	4	late	dm_task	0.743189628003165	n/a	21.0	-1.0	n/a
96.74318962800317	0.75	4	late	dm_task_post	n/a	n/a	n/a	n/a	n/a
101.5	0.5	4	late	em_task_pre	n/a	n/a	n/a	n/a	n/a
102.0	3.1488965129974993	4	late	em_task	n/a	n/a	n/a	n/a	131.545181093867
105.1488965129975	0.75	4	late	em_task_post	n/a	n/a	n/a	n/a	n/a
112.0	1.5	5	late	stimulus	n/a	157.5	n/a	n/a	n/a
123.5	0.5	5	late	dm_task_pre	n/a	n/a	n/a	n/a	n/a
124.0	1.12789570000314	5	late	dm_task	1.12789570000314	n/a	4.0	-1.0	n/a
125.12789570000314	0.75	5	late	dm_task_post	n/a	n/a	n/a	n/a	n/a
129.5	0.5	5	late	em_task_pre	n/a	n/a	n/a	n/a	n/a
130.0	3.8506286390038014	5	late	em_task	n/a	n/a	n/a	n/a	129.337133811082
133.8506286390038	0.75	5	late	em_task_post	n/a	n/a	n/a	n/a	n/a
140.0	1.5	6	early	stimulus	n/a	150.0	n/a	n/a	n/a
145.5	0.5	6	early	dm_task_pre	n/a	n/a	n/a	n/a	n/a
146.0	0.696715368001605	6	early	dm_task	0.696715368001605	n/a	-21.0	1.0	n/a
146.6967153680016	0.75	6	early	dm_task_post	n/a	n/a	n/a	n/a	n/a
157.5	0.5	6	early	em_task_pre	n/a	n/a	n/a	n/a	n/a
158.0	3.7556949430000017	6	early	em_task	n/a	n/a	n/a	n/a	168.756570685554
161.755694943	0.75	6	early	em_task_post	n/a	n/a	n/a	n/a	n/a
168.0	1.5	7	early	stimulus	n/a	75.0	n/a	n/a	n/a
173.5	0.5	7	early	dm_task_pre	n/a	n/a	n/a	n/a	n/a
174.0	1.30865166100557	7	early	dm_task	1.30865166100557	n/a	21.0	-1.0	n/a
175.30865166100557	0.75	7	early	dm_task_post	n/a	n/a	n/a	n/a	n/a
185.5	0.5	7	early	em_task_pre	n/a	n/a	n/a	n/a	n/a
186.0	1.8972322780028001	7	early	em_task	n/a	n/a	n/a	n/a	70.7457009411091
187.8972322780028	0.75	7	early	em_task_post	n/a	n/a	n/a	n/a	n/a
196.0	1.5	8	early	stimulus	n/a	105.0	n/a	n/a	n/a
201.5	0.5	8	early	dm_task_pre	n/a	n/a	n/a	n/a	n/a
202.0	1.5	8	early	dm_task	n/a	n/a	21.0	n/a	n/a
203.5	0.75	8	early	dm_task_post	n/a	n/a	n/a	n/a	n/a
213.5	0.5	8	early	em_task_pre	n/a	n/a	n/a	n/a	n/a
214.0	4.5	8	early	em_task	n/a	n/a	n/a	n/a	n/a
218.5	0.75	8	early	em_task_post	n/a	n/a	n/a	n/a	n/a
224.0	1.5	9	early	stimulus	n/a	7.5	n/a	n/a	n/a
229.5	0.5	9	early	dm_task_pre	n/a	n/a	n/a	n/a	n/a
230.0	0.590488861009362	9	early	dm_task	0.590488861009362	n/a	21.0	-1.0	n/a
230.59048886100936	0.75	9	early	dm_task_post	n/a	n/a	n/a	n/a	n/a
241.5	0.5	9	early	em_task_pre	n/a	n/a	n/a	n/a	n/a
242.0	2.9882477020000984	9	early	em_task	n/a	n/a	n/a	n/a	24.6055915786885
244.9882477020001	0.75	9	early	em_task_post	n/a	n/a	n/a	n/a	n/a
252.0	1.5	10	early	stimulus	n/a	120.0	n/a	n/a	n/a
257.5	0.5	10	early	dm_task_pre	n/a	n/a	n/a	n/a	n/a
258.0	1.4480399590102	10	early	dm_task	1.4480399590102	n/a	4.0	1.0	n/a
259.4480399590102	0.75	10	early	dm_task_post	n/a	n/a	n/a	n/a	n/a
269.5	0.5	10	early	em_task_pre	n/a	n/a	n/a	n/a	n/a
270.0	2.6097522750059987	10	early	em_task	n/a	n/a	n/a	n/a	108.195606061593
272.609752275006	0.75	10	early	em_task_post	n/a	n/a	n/a	n/a	n/a
280.0	1.5	11	late	stimulus	n/a	82.5	n/a	n/a	n/a
291.5	0.5	11	late	dm_task_pre	n/a	n/a	n/a	n/a	n/a
292.0	1.5	11	late	dm_task	1.76239555900975	n/a	21.0	-1.0	n/a
293.5	0.75	11	late	dm_task_post	n/a	n/a	n/a	n/a	n/a
297.5	0.5	11	late	em_task_pre	n/a	n/a	n/a	n/a	n/a
298.0	2.5048089900083	11	late	em_task	n/a	n/a	n/a	n/a	119.741959786493
300.5048089900083	0.75	11	late	em_task_post	n/a	n/a	n/a	n/a	n/a
308.0	1.5	12	early	stimulus	n/a	60.0	n/a	n/a	n/a
313.5	0.5	12	early	dm_task_pre	n/a	n/a	n/a	n/a	n/a
314.0	0.589111188004608	12	early	dm_task	0.589111188004608	n/a	4.0	-1.0	n/a
314.5891111880046	0.75	12	early	dm_task_post	n/a	n/a	n/a	n/a	n/a
325.5	0.5	12	early	em_task_pre	n/a	n/a	n/a	n/a	n/a
326.0	3.8025118490041017	12	early	em_task	n/a	n/a	n/a	n/a	67.9355608993775
329.8025118490041	0.75	12	early	em_task_post	n/a	n/a	n/a	n/a	n/a
