onset	duration	trial	trial_type	event_type	response_time	value_stimulus	value_reference	response_decision	response_estimation
0.0	1.5	1	late	stimulus	n/a	157.5	n/a	n/a	n/a
11.5	0.5	1	late	dm_task_pre	n/a	n/a	n/a	n/a	n/a
12.0	0.882313644999158	1	late	dm_task	0.882313644999158	n/a	-4.0	-1.0	n/a
12.882313644999158	0.75	1	late	dm_task_post	n/a	n/a	n/a	n/a	n/a
17.5	0.5	1	late	em_task_pre	n/a	n/a	n/a	n/a	n/a
18.0	3.6484566990001994	1	late	em_task	n/a	n/a	n/a	n/a	144.604608152813
21.6484566990002	0.75	1	late	em_task_post	n/a	n/a	n/a	n/a	n/a
28.0	1.5	2	late	stimulus	n/a	0.0	n/a	n/a	n/a
39.5	0.5	2	late	dm_task_pre	n/a	n/a	n/a	n/a	n/a
40.0	0.653564526999617	2	late	dm_task	0.653564526999617	n/a	0.0	-1.0	n/a
40.65356452699962	0.75	2	late	dm_task_post	n/a	n/a	n/a	n/a	n/a
45.5	0.5	2	late	em_task_pre	n/a	n/a	n/a	n/a	n/a
46.0	4.317550842999498	2	late	em_task	n/a	n/a	n/a	n/a	170.428376953217
50.317550842999495	0.75	2	late	em_task_post	n/a	n/a	n/a	n/a	n/a
56.0	1.5	3	late	stimulus	n/a	22.5	n/a	n/a	n/a
67.5	0.5	3	late	dm_task_pre	n/a	n/a	n/a	n/a	n/a
68.0	1.09084810199965	3	late	dm_task	1.09084810199965	n/a	0.0	-1.0	n/a
69.09084810199965	0.75	3	late	dm_task_post	n/a	n/a	n/a	n/a	n/a
73.5	0.5	3	late	em_task_pre	n/a	n/a	n/a	n/a	n/a
74.0	2.205321486999299	3	late	em_task	n/a	n/a	n/a	n/a	29.5564936145072
76.2053214869993	0.75	3	late	em_task_post	n/a	n/a	n/a	n/a	n/a
84.0	1.5	4	late	stimulus	n/a	90.0	n/a	n/a	n/a
95.5	0.5	4	late	dm_task_pre	n/a	n/a	n/a	n/a	n/a
96.0	0.64990024600047	4	late	dm_task	0.64990024600047	n/a	0.0	-1.0	n/a
96.64990024600047	0.75	4	late	dm_task_post	n/a	n/a	n/a	n/a	n/a
101.5	0.5	4	late	em_task_pre	n/a	n/a	n/a	n/a	n/a
102.0	3.6588363619993984	4	late	em_task	n/a	n/a	n/a	n/a	87.2622791581423
105.65883636199939	0.75	4	late	em_task_post	n/a	n/a	n/a	n/a	n/a
112.0	1.5	5	late	stimulus	n/a	45.0	n/a	n/a	n/a
123.5	0.5	5	late	dm_task_pre	n/a	n/a	n/a	n/a	n/a
124.0	0.556624791999639	5	late	dm_task	0.556624791999639	n/a	-21.0	1.0	n/a
124.55662479199964	0.75	5	late	dm_task_post	n/a	n/a	n/a	n/a	n/a
129.5	0.5	5	late	em_task_pre	n/a	n/a	n/a	n/a	n/a
130.0	1.9803564520006987	5	late	em_task	n/a	n/a	n/a	n/a	56.5861533407432
131.9803564520007	0.75	5	late	em_task_post	n/a	n/a	n/a	n/a	n/a
140.0	1.5	6	early	stimulus	n/a	7.5	n/a	n/a	n/a
145.5	0.5	6	early	dm_task_pre	n/a	n/a	n/a	n/a	n/a
146.0	0.690135250999447	6	early	dm_task	0.690135250999447	n/a	4.0	-1.0	n/a
146.69013525099945	0.75	6	early	dm_task_post	n/a	n/a	n/a	n/a	n/a
157.5	0.5	6	early	em_task_pre	n/a	n/a	n/a	n/a	n/a
158.0	4.5	6	early	em_task	n/a	n/a	n/a	n/a	n/a
162.5	0.75	6	early	em_task_post	n/a	n/a	n/a	n/a	n/a
168.0	1.5	7	late	stimulus	n/a	67.5	n/a	n/a	n/a
179.5	0.5	7	late	dm_task_pre	n/a	n/a	n/a	n/a	n/a
180.0	0.728889919999347	7	late	dm_task	0.728889919999347	n/a	0.0	1.0	n/a
180.72888991999935	0.75	7	late	dm_task_post	n/a	n/a	n/a	n/a	n/a
185.5	0.5	7	late	em_task_pre	n/a	n/a	n/a	n/a	n/a
186.0	2.9090391030003993	7	late	em_task	n/a	n/a	n/a	n/a	77.8422182007909
188.9090391030004	0.75	7	late	em_task_post	n/a	n/a	n/a	n/a	n/a
196.0	1.5	8	early	stimulus	n/a	60.0	n/a	n/a	n/a
201.5	0.5	8	early	dm_task_pre	n/a	n/a	n/a	n/a	n/a
202.0	0.968383740000718	8	early	dm_task	0.968383740000718	n/a	4.0	1.0	n/a
202.96838374000072	0.75	8	early	dm_task_post	n/a	n/a	n/a	n/a	n/a
213.5	0.5	8	early	em_task_pre	n/a	n/a	n/a	n/a	n/a
214.0	3.292851095999101	8	early	em_task	n/a	n/a	n/a	n/a	68.546900323313
217.2928510959991	0.75	8	early	em_task_post	n/a	n/a	n/a	n/a	n/a
224.0	1.5	9	late	stimulus	n/a	135.0	n/a	n/a	n/a
235.5	0.5	9	late	dm_task_pre	n/a	n/a	n/a	n/a	n/a
236.0	0.933618220000426	9	late	dm_task	0.933618220000426	n/a	-4.0	1.0	n/a
236.93361822000043	0.75	9	late	dm_task_post	n/a	n/a	n/a	n/a	n/a
241.5	0.5	9	late	em_task_pre	n/a	n/a	n/a	n/a	n/a
242.0	2.131708590999601	9	late	em_task	n/a	n/a	n/a	n/a	137.345259774676
244.1317085909996	0.75	9	late	em_task_post	n/a	n/a	n/a	n/a	n/a
252.0	1.5	10	early	stimulus	n/a	150.0	n/a	n/a	n/a
257.5	0.5	10	early	dm_task_pre	n/a	n/a	n/a	n/a	n/a
258.0	0.540360425000472	10	early	dm_task	0.540360425000472	n/a	-21.0	1.0	n/a
258.5403604250005	0.75	10	early	dm_task_post	n/a	n/a	n/a	n/a	n/a
269.5	0.5	10	early	em_task_pre	n/a	n/a	n/a	n/a	n/a
270.0	3.0005132509995995	10	early	em_task	n/a	n/a	n/a	n/a	144.998367005286
273.0005132509996	0.75	10	early	em_task_post	n/a	n/a	n/a	n/a	n/a
280.0	1.5	11	early	stimulus	n/a	37.5	n/a	n/a	n/a
285.5	0.5	11	early	dm_task_pre	n/a	n/a	n/a	n/a	n/a
286.0	0.828514409999116	11	early	dm_task	0.828514409999116	n/a	4.0	1.0	n/a
286.8285144099991	0.75	11	early	dm_task_post	n/a	n/a	n/a	n/a	n/a
297.5	0.5	11	early	em_task_pre	n/a	n/a	n/a	n/a	n/a
298.0	2.0066069679997014	11	early	em_task	n/a	n/a	n/a	n/a	44.8384213665014
300.0066069679997	0.75	11	early	em_task_post	n/a	n/a	n/a	n/a	n/a
308.0	1.5	12	late	stimulus	n/a	165.0	n/a	n/a	n/a
319.5	0.5	12	late	dm_task_pre	n/a	n/a	n/a	n/a	n/a
320.0	1.04696239199984	12	late	dm_task	1.04696239199984	n/a	-4.0	-1.0	n/a
321.04696239199984	0.75	12	late	dm_task_post	n/a	n/a	n/a	n/a	n/a
325.5	0.5	12	late	em_task_pre	n/a	n/a	n/a	n/a	n/a
326.0	2.8264481229998992	12	late	em_task	n/a	n/a	n/a	n/a	152.601264978249
328.8264481229999	0.75	12	late	em_task_post	n/a	n/a	n/a	n/a	n/a
