onset	duration	trial	trial_type	event_type	response_time	value_stimulus	value_reference	response_decision	response_estimation
0.0	1.5	1	early	stimulus	n/a	127.5	n/a	n/a	n/a
5.5	0.5	1	early	dm_task_pre	n/a	n/a	n/a	n/a	n/a
6.0	0.536102092002693	1	early	dm_task	0.536102092002693	n/a	-21.0	1.0	n/a
6.536102092002693	0.75	1	early	dm_task_post	n/a	n/a	n/a	n/a	n/a
17.5	0.5	1	early	em_task_pre	n/a	n/a	n/a	n/a	n/a
18.0	3.0139271010048	1	early	em_task	n/a	n/a	n/a	n/a	126.471569843155
21.0139271010048	0.75	1	early	em_task_post	n/a	n/a	n/a	n/a	n/a
28.0	1.5	2	late	stimulus	n/a	37.5	n/a	n/a	n/a
39.5	0.5	2	late	dm_task_pre	n/a	n/a	n/a	n/a	n/a
40.0	0.622498081000231	2	late	dm_task	0.622498081000231	n/a	21.0	-1.0	n/a
40.62249808100023	0.75	2	late	dm_task_post	n/a	n/a	n/a	n/a	n/a
45.5	0.5	2	late	em_task_pre	n/a	n/a	n/a	n/a	n/a
46.0	3.886924708000201	2	late	em_task	n/a	n/a	n/a	n/a	38.182059741612
49.8869247080002	0.75	2	late	em_task_post	n/a	n/a	n/a	n/a	n/a
56.0	1.5	3	late	stimulus	n/a	30.0	n/a	n/a	n/a
67.5	0.5	3	late	dm_task_pre	n/a	n/a	n/a	n/a	n/a
68.0	0.628381645001355	3	late	dm_task	0.628381645001355	n/a	0.0	-1.0	n/a
68.62838164500135	0.75	3	late	dm_task_post	n/a	n/a	n/a	n/a	n/a
73.5	0.5	3	late	em_task_pre	n/a	n/a	n/a	n/a	n/a
74.0	2.5600260620049013	3	late	em_task	n/a	n/a	n/a	n/a	31.3713692755464
76.56002606200491	0.75	3	late	em_task_post	n/a	n/a	n/a	n/a	n/a
84.0	1.5	4	early	stimulus	n/a	7.5	n/a	n/a	n/a
89.5	0.5	4	early	dm_task_pre	n/a	n/a	n/a	n/a	n/a
90.0	0.653347689003567	4	early	dm_task	0.653347689003567	n/a	4.0	1.0	n/a
90.65334768900357	0.75	4	early	dm_task_post	n/a	n/a	n/a	n/a	n/a
101.5	0.5	4	early	em_task_pre	n/a	n/a	n/a	n/a	n/a
102.0	1.5496740050002984	4	early	em_task	n/a	n/a	n/a	n/a	26.8555629598189
103.5496740050003	0.75	4	early	em_task_post	n/a	n/a	n/a	n/a	n/a
112.0	1.5	5	late	stimulus	n/a	15.0	n/a	n/a	n/a
123.5	0.5	5	late	dm_task_pre	n/a	n/a	n/a	n/a	n/a
124.0	0.492547749003279	5	late	dm_task	0.492547749003279	n/a	-4.0	1.0	n/a
124.49254774900328	0.75	5	late	dm_task_post	n/a	n/a	n/a	n/a	n/a
129.5	0.5	5	late	em_task_pre	n/a	n/a	n/a	n/a	n/a
130.0	3.9555919250050984	5	late	em_task	n/a	n/a	n/a	n/a	22.3821793986245
133.9555919250051	0.75	5	late	em_task_post	n/a	n/a	n/a	n/a	n/a
140.0	1.5	6	late	stimulus	n/a	112.5	n/a	n/a	n/a
151.5	0.5	6	late	dm_task_pre	n/a	n/a	n/a	n/a	n/a
152.0	0.56671683100285	6	late	dm_task	0.56671683100285	n/a	-4.0	1.0	n/a
152.56671683100285	0.75	6	late	dm_task_post	n/a	n/a	n/a	n/a	n/a
157.5	0.5	6	late	em_task_pre	n/a	n/a	n/a	n/a	n/a
158.0	3.4796555330031005	6	late	em_task	n/a	n/a	n/a	n/a	129.711664751727
161.4796555330031	0.75	6	late	em_task_post	n/a	n/a	n/a	n/a	n/a
168.0	1.5	7	early	stimulus	n/a	75.0	n/a	n/a	n/a
173.5	0.5	7	early	dm_task_pre	n/a	n/a	n/a	n/a	n/a
174.0	0.574052395000763	7	early	dm_task	0.574052395000763	n/a	0.0	-1.0	n/a
174.57405239500076	0.75	7	early	dm_task_post	n/a	n/a	n/a	n/a	n/a
185.5	0.5	7	early	em_task_pre	n/a	n/a	n/a	n/a	n/a
186.0	1.5703029990036015	7	early	em_task	n/a	n/a	n/a	n/a	62.351493264752
187.57030299900362	0.75	7	early	em_task_post	n/a	n/a	n/a	n/a	n/a
196.0	1.5	8	early	stimulus	n/a	157.5	n/a	n/a	n/a
201.5	0.5	8	early	dm_task_pre	n/a	n/a	n/a	n/a	n/a
202.0	0.532173856001464	8	early	dm_task	0.532173856001464	n/a	0.0	-1.0	n/a
202.53217385600146	0.75	8	early	dm_task_post	n/a	n/a	n/a	n/a	n/a
213.5	0.5	8	early	em_task_pre	n/a	n/a	n/a	n/a	n/a
214.0	2.5919333890050993	8	early	em_task	n/a	n/a	n/a	n/a	150.484174047547
216.5919333890051	0.75	8	early	em_task_post	n/a	n/a	n/a	n/a	n/a
224.0	1.5	9	late	stimulus	n/a	135.0	n/a	n/a	n/a
235.5	0.5	9	late	dm_task_pre	n/a	n/a	n/a	n/a	n/a
236.0	0.617658330003906	9	late	dm_task	0.617658330003906	n/a	-4.0	-1.0	n/a
236.6176583300039	0.75	9	late	dm_task_post	n/a	n/a	n/a	n/a	n/a
241.5	0.5	9	late	em_task_pre	n/a	n/a	n/a	n/a	n/a
242.0	3.282282460000701	9	late	em_task	n/a	n/a	n/a	n/a	139.707707033755
245.28228246000072	0.75	9	late	em_task_post	n/a	n/a	n/a	n/a	n/a
252.0	1.5	10	early	stimulus	n/a	0.0	n/a	n/a	n/a
257.5	0.5	10	early	dm_task_pre	n/a	n/a	n/a	n/a	n/a
258.0	0.844335468005738	10	early	dm_task	0.844335468005738	n/a	-21.0	-1.0	n/a
258.84433546800574	0.75	10	early	dm_task_post	n/a	n/a	n/a	n/a	n/a
269.5	0.5	10	early	em_task_pre	n/a	n/a	n/a	n/a	n/a
270.0	2.3067439940059984	10	early	em_task	n/a	n/a	n/a	n/a	8.86510551810254
272.306743994006	0.75	10	early	em_task_post	n/a	n/a	n/a	n/a	n/a
280.0	1.5	11	late	stimulus	n/a	105.0	n/a	n/a	n/a
291.5	0.5	11	late	dm_task_pre	n/a	n/a	n/a	n/a	n/a
292.0	1.16340174400102	11	late	dm_task	1.16340174400102	n/a	0.0	1.0	n/a
293.163401744001	0.75	11	late	dm_task_post	n/a	n/a	n/a	n/a	n/a
297.5	0.5	11	late	em_task_pre	n/a	n/a	n/a	n/a	n/a
298.0	1.4296246780067996	11	late	em_task	n/a	n/a	n/a	n/a	110.455420615429
299.4296246780068	0.75	11	late	em_task_post	n/a	n/a	n/a	n/a	n/a
308.0	1.5	12	late	stimulus	n/a	142.5	n/a	n/a	n/a
319.5	0.5	12	late	dm_task_pre	n/a	n/a	n/a	n/a	n/a
320.0	0.571827958003269	12	late	dm_task	0.571827958003269	n/a	-4.0	-1.0	n/a
320.57182795800327	0.75	12	late	dm_task_post	n/a	n/a	n/a	n/a	n/a
325.5	0.5	12	late	em_task_pre	n/a	n/a	n/a	n/a	n/a
326.0	2.918269036003	12	late	em_task	n/a	n/a	n/a	n/a	130.688793404737
328.918269036003	0.75	12	late	em_task_post	n/a	n/a	n/a	n/a	n/a
