onset	duration	trial	trial_type	event_type	response_time	value_stimulus	value_reference	response_decision	response_estimation
0.0	1.5	1	late	stimulus	n/a	157.5	n/a	n/a	n/a
11.5	0.5	1	late	dm_task_pre	n/a	n/a	n/a	n/a	n/a
12.0	0.646628033000525	1	late	dm_task	0.646628033000525	n/a	21.0	-1.0	n/a
12.646628033000525	0.75	1	late	dm_task_post	n/a	n/a	n/a	n/a	n/a
17.5	0.5	1	late	em_task_pre	n/a	n/a	n/a	n/a	n/a
18.0	1.7456350570009995	1	late	em_task	n/a	n/a	n/a	n/a	158.373626960922
19.745635057001	0.75	1	late	em_task_post	n/a	n/a	n/a	n/a	n/a
28.0	1.5	2	early	stimulus	n/a	45.0	n/a	n/a	n/a
33.5	0.5	2	early	dm_task_pre	n/a	n/a	n/a	n/a	n/a
34.0	0.805605838000702	2	early	dm_task	0.805605838000702	n/a	-4.0	1.0	n/a
34.8056058380007	0.75	2	early	dm_task_post	n/a	n/a	n/a	n/a	n/a
45.5	0.5	2	early	em_task_pre	n/a	n/a	n/a	n/a	n/a
46.0	1.5363049540010003	2	early	em_task	n/a	n/a	n/a	n/a	41.0071956204332
47.536304954001	0.75	2	early	em_task_post	n/a	n/a	n/a	n/a	n/a
56.0	1.5	3	late	stimulus	n/a	165.0	n/a	n/a	n/a
67.5	0.5	3	late	dm_task_pre	n/a	n/a	n/a	n/a	n/a
68.0	0.643656408999959	3	late	dm_task	0.643656408999959	n/a	0.0	1.0	n/a
68.64365640899996	0.75	3	late	dm_task_post	n/a	n/a	n/a	n/a	n/a
73.5	0.5	3	late	em_task_pre	n/a	n/a	n/a	n/a	n/a
74.0	2.0745277850001003	3	late	em_task	n/a	n/a	n/a	n/a	169.743806710283
76.0745277850001	0.75	3	late	em_task_post	n/a	n/a	n/a	n/a	n/a
84.0	1.5	4	late	stimulus	n/a	112.5	n/a	n/a	n/a
95.5	0.5	4	late	dm_task_pre	n/a	n/a	n/a	n/a	n/a
96.0	0.7176695750004	4	late	dm_task	0.7176695750004	n/a	0.0	1.0	n/a
96.7176695750004	0.75	4	late	dm_task_post	n/a	n/a	n/a	n/a	n/a
101.5	0.5	4	late	em_task_pre	n/a	n/a	n/a	n/a	n/a
102.0	2.8972164429996994	4	late	em_task	n/a	n/a	n/a	n/a	120.818491056606
104.8972164429997	0.75	4	late	em_task_post	n/a	n/a	n/a	n/a	n/a
112.0	1.5	5	late	stimulus	n/a	7.5	n/a	n/a	n/a
123.5	0.5	5	late	dm_task_pre	n/a	n/a	n/a	n/a	n/a
124.0	0.624402293000458	5	late	dm_task	0.624402293000458	n/a	-21.0	1.0	n/a
124.62440229300046	0.75	5	late	dm_task_post	n/a	n/a	n/a	n/a	n/a
129.5	0.5	5	late	em_task_pre	n/a	n/a	n/a	n/a	n/a
130.0	1.9706901310001008	5	late	em_task	n/a	n/a	n/a	n/a	18.6165431758458
131.9706901310001	0.75	5	late	em_task_post	n/a	n/a	n/a	n/a	n/a
140.0	1.5	6	late	stimulus	n/a	142.5	n/a	n/a	n/a
151.5	0.5	6	late	dm_task_pre	n/a	n/a	n/a	n/a	n/a
152.0	0.664009517000522	6	late	dm_task	0.664009517000522	n/a	0.0	1.0	n/a
152.66400951700052	0.75	6	late	dm_task_post	n/a	n/a	n/a	n/a	n/a
157.5	0.5	6	late	em_task_pre	n/a	n/a	n/a	n/a	n/a
158.0	2.244393352999399	6	late	em_task	n/a	n/a	n/a	n/a	150.909393462734
160.2443933529994	0.75	6	late	em_task_post	n/a	n/a	n/a	n/a	n/a
168.0	1.5	7	late	stimulus	n/a	0.0	n/a	n/a	n/a
179.5	0.5	7	late	dm_task_pre	n/a	n/a	n/a	n/a	n/a
180.0	0.536200606000421	7	late	dm_task	0.536200606000421	n/a	-21.0	1.0	n/a
180.53620060600042	0.75	7	late	dm_task_post	n/a	n/a	n/a	n/a	n/a
185.5	0.5	7	late	em_task_pre	n/a	n/a	n/a	n/a	n/a
186.0	1.534385373001001	7	late	em_task	n/a	n/a	n/a	n/a	169.596505489021
187.534385373001	0.75	7	late	em_task_post	n/a	n/a	n/a	n/a	n/a
196.0	1.5	8	early	stimulus	n/a	15.0	n/a	n/a	n/a
201.5	0.5	8	early	dm_task_pre	n/a	n/a	n/a	n/a	n/a
202.0	0.927866156000164	8	early	dm_task	0.927866156000164	n/a	0.0	1.0	n/a
202.92786615600016	0.75	8	early	dm_task_post	n/a	n/a	n/a	n/a	n/a
213.5	0.5	8	early	em_task_pre	n/a	n/a	n/a	n/a	n/a
214.0	2.6230217550000994	8	early	em_task	n/a	n/a	n/a	n/a	19.3977788991485
216.6230217550001	0.75	8	early	em_task_post	n/a	n/a	n/a	n/a	n/a
224.0	1.5	9	late	stimulus	n/a	150.0	n/a	n/a	n/a
235.5	0.5	9	late	dm_task_pre	n/a	n/a	n/a	n/a	n/a
236.0	0.732561865001117	9	late	dm_task	0.732561865001117	n/a	4.0	-1.0	n/a
236.73256186500112	0.75	9	late	dm_task_post	n/a	n/a	n/a	n/a	n/a
241.5	0.5	9	late	em_task_pre	n/a	n/a	n/a	n/a	n/a
242.0	1.8303537829997012	9	late	em_task	n/a	n/a	n/a	n/a	137.935375191618
243.8303537829997	0.75	9	late	em_task_post	n/a	n/a	n/a	n/a	n/a
252.0	1.5	10	early	stimulus	n/a	135.0	n/a	n/a	n/a
257.5	0.5	10	early	dm_task_pre	n/a	n/a	n/a	n/a	n/a
258.0	0.641587709000305	10	early	dm_task	0.641587709000305	n/a	21.0	-1.0	n/a
258.6415877090003	0.75	10	early	dm_task_post	n/a	n/a	n/a	n/a	n/a
269.5	0.5	10	early	em_task_pre	n/a	n/a	n/a	n/a	n/a
270.0	1.8200855280011012	10	early	em_task	n/a	n/a	n/a	n/a	137.956010936357
271.8200855280011	0.75	10	early	em_task_post	n/a	n/a	n/a	n/a	n/a
280.0	1.5	11	late	stimulus	n/a	97.5	n/a	n/a	n/a
291.5	0.5	11	late	dm_task_pre	n/a	n/a	n/a	n/a	n/a
292.0	0.729663682999671	11	late	dm_task	0.729663682999671	n/a	21.0	-1.0	n/a
292.72966368299967	0.75	11	late	dm_task_post	n/a	n/a	n/a	n/a	n/a
297.5	0.5	11	late	em_task_pre	n/a	n/a	n/a	n/a	n/a
298.0	1.193223886999501	11	late	em_task	n/a	n/a	n/a	n/a	103.253523541031
299.1932238869995	0.75	11	late	em_task_post	n/a	n/a	n/a	n/a	n/a
308.0	1.5	12	late	stimulus	n/a	82.5	n/a	n/a	n/a
319.5	0.5	12	late	dm_task_pre	n/a	n/a	n/a	n/a	n/a
320.0	0.901784982001118	12	late	dm_task	0.901784982001118	n/a	0.0	-1.0	n/a
320.9017849820011	0.75	12	late	dm_task_post	n/a	n/a	n/a	n/a	n/a
325.5	0.5	12	late	em_task_pre	n/a	n/a	n/a	n/a	n/a
326.0	2.6986110159995995	12	late	em_task	n/a	n/a	n/a	n/a	79.0852669975649
328.6986110159996	0.75	12	late	em_task_post	n/a	n/a	n/a	n/a	n/a
