onset	duration	trial	trial_type	event_type	response_time	value_stimulus	value_reference	response_decision	response_estimation
0.0	1.5	1	early	stimulus	n/a	60.0	n/a	n/a	n/a
5.5	0.5	1	early	dm_task_pre	n/a	n/a	n/a	n/a	n/a
6.0	0.634358206007164	1	early	dm_task	0.634358206007164	n/a	-4.0	1.0	n/a
6.634358206007164	0.75	1	early	dm_task_post	n/a	n/a	n/a	n/a	n/a
17.5	0.5	1	early	em_task_pre	n/a	n/a	n/a	n/a	n/a
18.0	2.4882744380157007	1	early	em_task	n/a	n/a	n/a	n/a	60.9359522432047
20.4882744380157	0.75	1	early	em_task_post	n/a	n/a	n/a	n/a	n/a
28.0	1.5	2	late	stimulus	n/a	0.0	n/a	n/a	n/a
39.5	0.5	2	late	dm_task_pre	n/a	n/a	n/a	n/a	n/a
40.0	1.22866837499896	2	late	dm_task	1.22866837499896	n/a	0.0	1.0	n/a
41.22866837499896	0.75	2	late	dm_task_post	n/a	n/a	n/a	n/a	n/a
45.5	0.5	2	late	em_task_pre	n/a	n/a	n/a	n/a	n/a
46.0	2.7315586000331997	2	late	em_task	n/a	n/a	n/a	n/a	5.16146299436332
48.731558600033196	0.75	2	late	em_task_post	n/a	n/a	n/a	n/a	n/a
56.0	1.5	3	early	stimulus	n/a	120.0	n/a	n/a	n/a
61.5	0.5	3	early	dm_task_pre	n/a	n/a	n/a	n/a	n/a
62.0	0.620134884025902	3	early	dm_task	0.620134884025902	n/a	21.0	-1.0	n/a
62.6201348840259	0.75	3	early	dm_task_post	n/a	n/a	n/a	n/a	n/a
73.5	0.5	3	early	em_task_pre	n/a	n/a	n/a	n/a	n/a
74.0	1.8562267509988004	3	early	em_task	n/a	n/a	n/a	n/a	112.609862908991
75.8562267509988	0.75	3	early	em_task_post	n/a	n/a	n/a	n/a	n/a
84.0	1.5	4	late	stimulus	n/a	157.5	n/a	n/a	n/a
95.5	0.5	4	late	dm_task_pre	n/a	n/a	n/a	n/a	n/a
96.0	0.714697253017221	4	late	dm_task	0.714697253017221	n/a	4.0	-1.0	n/a
96.71469725301722	0.75	4	late	dm_task_post	n/a	n/a	n/a	n/a	n/a
101.5	0.5	4	late	em_task_pre	n/a	n/a	n/a	n/a	n/a
102.0	3.8674593250033986	4	late	em_task	n/a	n/a	n/a	n/a	161.390437540587
105.8674593250034	0.75	4	late	em_task_post	n/a	n/a	n/a	n/a	n/a
112.0	1.5	5	late	stimulus	n/a	45.0	n/a	n/a	n/a
123.5	0.5	5	late	dm_task_pre	n/a	n/a	n/a	n/a	n/a
124.0	0.773877775995061	5	late	dm_task	0.773877775995061	n/a	0.0	-1.0	n/a
124.77387777599506	0.75	5	late	dm_task_post	n/a	n/a	n/a	n/a	n/a
129.5	0.5	5	late	em_task_pre	n/a	n/a	n/a	n/a	n/a
130.0	3.3598558049997997	5	late	em_task	n/a	n/a	n/a	n/a	35.9894058048038
133.3598558049998	0.75	5	late	em_task_post	n/a	n/a	n/a	n/a	n/a
140.0	1.5	6	late	stimulus	n/a	52.5	n/a	n/a	n/a
151.5	0.5	6	late	dm_task_pre	n/a	n/a	n/a	n/a	n/a
152.0	0.715528814995196	6	late	dm_task	0.715528814995196	n/a	0.0	-1.0	n/a
152.7155288149952	0.75	6	late	dm_task_post	n/a	n/a	n/a	n/a	n/a
157.5	0.5	6	late	em_task_pre	n/a	n/a	n/a	n/a	n/a
158.0	2.5678353600088	6	late	em_task	n/a	n/a	n/a	n/a	34.1266410170081
160.56783536000881	0.75	6	late	em_task_post	n/a	n/a	n/a	n/a	n/a
168.0	1.5	7	late	stimulus	n/a	165.0	n/a	n/a	n/a
179.5	0.5	7	late	dm_task_pre	n/a	n/a	n/a	n/a	n/a
180.0	0.875537595013157	7	late	dm_task	0.875537595013157	n/a	4.0	-1.0	n/a
180.87553759501316	0.75	7	late	dm_task_post	n/a	n/a	n/a	n/a	n/a
185.5	0.5	7	late	em_task_pre	n/a	n/a	n/a	n/a	n/a
186.0	3.9273564440082005	7	late	em_task	n/a	n/a	n/a	n/a	163.142709188438
189.9273564440082	0.75	7	late	em_task_post	n/a	n/a	n/a	n/a	n/a
196.0	1.5	8	late	stimulus	n/a	135.0	n/a	n/a	n/a
207.5	0.5	8	late	dm_task_pre	n/a	n/a	n/a	n/a	n/a
208.0	0.600763877038844	8	late	dm_task	0.600763877038844	n/a	0.0	-1.0	n/a
208.60076387703884	0.75	8	late	dm_task_post	n/a	n/a	n/a	n/a	n/a
213.5	0.5	8	late	em_task_pre	n/a	n/a	n/a	n/a	n/a
214.0	1.8188251440296987	8	late	em_task	n/a	n/a	n/a	n/a	126.214502092505
215.8188251440297	0.75	8	late	em_task_post	n/a	n/a	n/a	n/a	n/a
224.0	1.5	9	early	stimulus	n/a	75.0	n/a	n/a	n/a
229.5	0.5	9	early	dm_task_pre	n/a	n/a	n/a	n/a	n/a
230.0	0.791071797022596	9	early	dm_task	0.791071797022596	n/a	0.0	-1.0	n/a
230.7910717970226	0.75	9	early	dm_task_post	n/a	n/a	n/a	n/a	n/a
241.5	0.5	9	early	em_task_pre	n/a	n/a	n/a	n/a	n/a
242.0	2.479128284030601	9	early	em_task	n/a	n/a	n/a	n/a	70.0519302797879
244.4791282840306	0.75	9	early	em_task_post	n/a	n/a	n/a	n/a	n/a
252.0	1.5	10	early	stimulus	n/a	67.5	n/a	n/a	n/a
257.5	0.5	10	early	dm_task_pre	n/a	n/a	n/a	n/a	n/a
258.0	0.534423324046656	10	early	dm_task	0.534423324046656	n/a	-21.0	1.0	n/a
258.53442332404666	0.75	10	early	dm_task_post	n/a	n/a	n/a	n/a	n/a
269.5	0.5	10	early	em_task_pre	n/a	n/a	n/a	n/a	n/a
270.0	1.4550601710216	10	early	em_task	n/a	n/a	n/a	n/a	60.5306102492441
271.4550601710216	0.75	10	early	em_task_post	n/a	n/a	n/a	n/a	n/a
280.0	1.5	11	late	stimulus	n/a	142.5	n/a	n/a	n/a
291.5	0.5	11	late	dm_task_pre	n/a	n/a	n/a	n/a	n/a
292.0	1.02866469201399	11	late	dm_task	1.02866469201399	n/a	0.0	-1.0	n/a
293.028664692014	0.75	11	late	dm_task_post	n/a	n/a	n/a	n/a	n/a
297.5	0.5	11	late	em_task_pre	n/a	n/a	n/a	n/a	n/a
298.0	3.1485613050172	11	late	em_task	n/a	n/a	n/a	n/a	134.372287052683
301.1485613050172	0.75	11	late	em_task_post	n/a	n/a	n/a	n/a	n/a
308.0	1.5	12	late	stimulus	n/a	30.0	n/a	n/a	n/a
319.5	0.5	12	late	dm_task_pre	n/a	n/a	n/a	n/a	n/a
320.0	0.536947793036234	12	late	dm_task	0.536947793036234	n/a	21.0	-1.0	n/a
320.53694779303623	0.75	12	late	dm_task_post	n/a	n/a	n/a	n/a	n/a
325.5	0.5	12	late	em_task_pre	n/a	n/a	n/a	n/a	n/a
326.0	1.3222835420164998	12	late	em_task	n/a	n/a	n/a	n/a	32.7971562241057
327.3222835420165	0.75	12	late	em_task_post	n/a	n/a	n/a	n/a	n/a
