onset	duration	trial	trial_type	event_type	response_time	value_stimulus	value_reference	response_decision	response_estimation
0.0	1.5	1	early	stimulus	n/a	90.0	n/a	n/a	n/a
5.5	0.5	1	early	dm_task_pre	n/a	n/a	n/a	n/a	n/a
6.0	0.632793902012054	1	early	dm_task	0.632793902012054	n/a	-4.0	1.0	n/a
6.632793902012054	0.75	1	early	dm_task_post	n/a	n/a	n/a	n/a	n/a
17.5	0.5	1	early	em_task_pre	n/a	n/a	n/a	n/a	n/a
18.0	2.0872396659687986	1	early	em_task	n/a	n/a	n/a	n/a	90.4470477500495
20.0872396659688	0.75	1	early	em_task_post	n/a	n/a	n/a	n/a	n/a
28.0	1.5	2	late	stimulus	n/a	22.5	n/a	n/a	n/a
39.5	0.5	2	late	dm_task_pre	n/a	n/a	n/a	n/a	n/a
40.0	0.693178693996742	2	late	dm_task	0.693178693996742	n/a	-21.0	1.0	n/a
40.69317869399674	0.75	2	late	dm_task_post	n/a	n/a	n/a	n/a	n/a
45.5	0.5	2	late	em_task_pre	n/a	n/a	n/a	n/a	n/a
46.0	3.8628101240028982	2	late	em_task	n/a	n/a	n/a	n/a	10.532512777808
49.8628101240029	0.75	2	late	em_task_post	n/a	n/a	n/a	n/a	n/a
56.0	1.5	3	early	stimulus	n/a	127.5	n/a	n/a	n/a
61.5	0.5	3	early	dm_task_pre	n/a	n/a	n/a	n/a	n/a
62.0	0.634404769982211	3	early	dm_task	0.634404769982211	n/a	4.0	-1.0	n/a
62.63440476998221	0.75	3	early	dm_task_post	n/a	n/a	n/a	n/a	n/a
73.5	0.5	3	early	em_task_pre	n/a	n/a	n/a	n/a	n/a
74.0	2.0374722270062016	3	early	em_task	n/a	n/a	n/a	n/a	130.134841812352
76.0374722270062	0.75	3	early	em_task_post	n/a	n/a	n/a	n/a	n/a
84.0	1.5	4	late	stimulus	n/a	112.5	n/a	n/a	n/a
95.5	0.5	4	late	dm_task_pre	n/a	n/a	n/a	n/a	n/a
96.0	0.511329057975672	4	late	dm_task	0.511329057975672	n/a	-21.0	1.0	n/a
96.51132905797567	0.75	4	late	dm_task_post	n/a	n/a	n/a	n/a	n/a
101.5	0.5	4	late	em_task_pre	n/a	n/a	n/a	n/a	n/a
102.0	2.965716740989599	4	late	em_task	n/a	n/a	n/a	n/a	105.525847288224
104.96571674098959	0.75	4	late	em_task_post	n/a	n/a	n/a	n/a	n/a
112.0	1.5	5	late	stimulus	n/a	82.5	n/a	n/a	n/a
123.5	0.5	5	late	dm_task_pre	n/a	n/a	n/a	n/a	n/a
124.0	0.536556758976076	5	late	dm_task	0.536556758976076	n/a	-21.0	1.0	n/a
124.53655675897608	0.75	5	late	dm_task_post	n/a	n/a	n/a	n/a	n/a
129.5	0.5	5	late	em_task_pre	n/a	n/a	n/a	n/a	n/a
130.0	2.2078314709943	5	late	em_task	n/a	n/a	n/a	n/a	69.9470029684764
132.2078314709943	0.75	5	late	em_task_post	n/a	n/a	n/a	n/a	n/a
140.0	1.5	6	early	stimulus	n/a	120.0	n/a	n/a	n/a
145.5	0.5	6	early	dm_task_pre	n/a	n/a	n/a	n/a	n/a
146.0	0.795085954014212	6	early	dm_task	0.795085954014212	n/a	0.0	-1.0	n/a
146.7950859540142	0.75	6	early	dm_task_post	n/a	n/a	n/a	n/a	n/a
157.5	0.5	6	early	em_task_pre	n/a	n/a	n/a	n/a	n/a
158.0	2.0003758289967983	6	early	em_task	n/a	n/a	n/a	n/a	113.388482361803
160.0003758289968	0.75	6	early	em_task_post	n/a	n/a	n/a	n/a	n/a
168.0	1.5	7	early	stimulus	n/a	52.5	n/a	n/a	n/a
173.5	0.5	7	early	dm_task_pre	n/a	n/a	n/a	n/a	n/a
174.0	1.5	7	early	dm_task	1.56952799501596	n/a	-4.0	-1.0	n/a
175.5	0.75	7	early	dm_task_post	n/a	n/a	n/a	n/a	n/a
185.5	0.5	7	early	em_task_pre	n/a	n/a	n/a	n/a	n/a
186.0	1.7081661900156	7	early	em_task	n/a	n/a	n/a	n/a	34.5436870350546
187.7081661900156	0.75	7	early	em_task_post	n/a	n/a	n/a	n/a	n/a
196.0	1.5	8	early	stimulus	n/a	157.5	n/a	n/a	n/a
201.5	0.5	8	early	dm_task_pre	n/a	n/a	n/a	n/a	n/a
202.0	0.695420264964923	8	early	dm_task	0.695420264964923	n/a	4.0	-1.0	n/a
202.69542026496492	0.75	8	early	dm_task_post	n/a	n/a	n/a	n/a	n/a
213.5	0.5	8	early	em_task_pre	n/a	n/a	n/a	n/a	n/a
214.0	2.9681300009834004	8	early	em_task	n/a	n/a	n/a	n/a	148.305399200057
216.9681300009834	0.75	8	early	em_task_post	n/a	n/a	n/a	n/a	n/a
224.0	1.5	9	early	stimulus	n/a	30.0	n/a	n/a	n/a
229.5	0.5	9	early	dm_task_pre	n/a	n/a	n/a	n/a	n/a
230.0	0.5879045019974	9	early	dm_task	0.5879045019974	n/a	21.0	-1.0	n/a
230.5879045019974	0.75	9	early	dm_task_post	n/a	n/a	n/a	n/a	n/a
241.5	0.5	9	early	em_task_pre	n/a	n/a	n/a	n/a	n/a
242.0	1.4604857519735006	9	early	em_task	n/a	n/a	n/a	n/a	25.4940456204849
243.4604857519735	0.75	9	early	em_task_post	n/a	n/a	n/a	n/a	n/a
252.0	1.5	10	early	stimulus	n/a	165.0	n/a	n/a	n/a
257.5	0.5	10	early	dm_task_pre	n/a	n/a	n/a	n/a	n/a
258.0	0.5628996269661	10	early	dm_task	0.5628996269661	n/a	-21.0	1.0	n/a
258.5628996269661	0.75	10	early	dm_task_post	n/a	n/a	n/a	n/a	n/a
269.5	0.5	10	early	em_task_pre	n/a	n/a	n/a	n/a	n/a
270.0	3.2529516089708004	10	early	em_task	n/a	n/a	n/a	n/a	159.09060804447
273.2529516089708	0.75	10	early	em_task_post	n/a	n/a	n/a	n/a	n/a
280.0	1.5	11	early	stimulus	n/a	142.5	n/a	n/a	n/a
285.5	0.5	11	early	dm_task_pre	n/a	n/a	n/a	n/a	n/a
286.0	0.590863198973238	11	early	dm_task	0.590863198973238	n/a	21.0	-1.0	n/a
286.59086319897324	0.75	11	early	dm_task_post	n/a	n/a	n/a	n/a	n/a
297.5	0.5	11	early	em_task_pre	n/a	n/a	n/a	n/a	n/a
298.0	2.144621405983301	11	early	em_task	n/a	n/a	n/a	n/a	129.562362397416
300.1446214059833	0.75	11	early	em_task_post	n/a	n/a	n/a	n/a	n/a
308.0	1.5	12	early	stimulus	n/a	97.5	n/a	n/a	n/a
313.5	0.5	12	early	dm_task_pre	n/a	n/a	n/a	n/a	n/a
314.0	1.11564219999127	12	early	dm_task	1.11564219999127	n/a	4.0	-1.0	n/a
315.11564219999127	0.75	12	early	dm_task_post	n/a	n/a	n/a	n/a	n/a
325.5	0.5	12	early	em_task_pre	n/a	n/a	n/a	n/a	n/a
326.0	1.6378317329800005	12	early	em_task	n/a	n/a	n/a	n/a	98.3368147047183
327.63783173298	0.75	12	early	em_task_post	n/a	n/a	n/a	n/a	n/a
