onset	duration	trial	trial_type	event_type	response_time	value_stimulus	value_reference	response_decision	response_estimation
0.0	1.5	1	late	stimulus	n/a	157.5	n/a	n/a	n/a
11.5	0.5	1	late	dm_task_pre	n/a	n/a	n/a	n/a	n/a
12.0	0.693215405015508	1	late	dm_task	0.693215405015508	n/a	-21.0	1.0	n/a
12.693215405015508	0.75	1	late	dm_task_post	n/a	n/a	n/a	n/a	n/a
17.5	0.5	1	late	em_task_pre	n/a	n/a	n/a	n/a	n/a
18.0	3.261561654013299	1	late	em_task	n/a	n/a	n/a	n/a	147.043687035055
21.2615616540133	0.75	1	late	em_task_post	n/a	n/a	n/a	n/a	n/a
28.0	1.5	2	late	stimulus	n/a	97.5	n/a	n/a	n/a
39.5	0.5	2	late	dm_task_pre	n/a	n/a	n/a	n/a	n/a
40.0	0.536049178015674	2	late	dm_task	0.536049178015674	n/a	0.0	1.0	n/a
40.53604917801567	0.75	2	late	dm_task_post	n/a	n/a	n/a	n/a	n/a
45.5	0.5	2	late	em_task_pre	n/a	n/a	n/a	n/a	n/a
46.0	1.8528691850079007	2	late	em_task	n/a	n/a	n/a	n/a	99.0866492000571
47.852869185007904	0.75	2	late	em_task_post	n/a	n/a	n/a	n/a	n/a
56.0	1.5	3	late	stimulus	n/a	142.5	n/a	n/a	n/a
67.5	0.5	3	late	dm_task_pre	n/a	n/a	n/a	n/a	n/a
68.0	0.743150810012594	3	late	dm_task	0.743150810012594	n/a	21.0	-1.0	n/a
68.7431508100126	0.75	3	late	dm_task_post	n/a	n/a	n/a	n/a	n/a
73.5	0.5	3	late	em_task_pre	n/a	n/a	n/a	n/a	n/a
74.0	2.1470635140140004	3	late	em_task	n/a	n/a	n/a	n/a	143.619045620485
76.14706351401401	0.75	3	late	em_task_post	n/a	n/a	n/a	n/a	n/a
84.0	1.5	4	late	stimulus	n/a	0.0	n/a	n/a	n/a
95.5	0.5	4	late	dm_task_pre	n/a	n/a	n/a	n/a	n/a
96.0	1.28636728500715	4	late	dm_task	1.28636728500715	n/a	-21.0	1.0	n/a
97.28636728500715	0.75	4	late	dm_task_post	n/a	n/a	n/a	n/a	n/a
101.5	0.5	4	late	em_task_pre	n/a	n/a	n/a	n/a	n/a
102.0	1.6213899610157014	4	late	em_task	n/a	n/a	n/a	n/a	18.4656080444696
103.6213899610157	0.75	4	late	em_task_post	n/a	n/a	n/a	n/a	n/a
112.0	1.5	5	early	stimulus	n/a	15.0	n/a	n/a	n/a
117.5	0.5	5	early	dm_task_pre	n/a	n/a	n/a	n/a	n/a
118.0	0.624556818016572	5	early	dm_task	0.624556818016572	n/a	21.0	-1.0	n/a
118.62455681801657	0.75	5	early	dm_task_post	n/a	n/a	n/a	n/a	n/a
129.5	0.5	5	early	em_task_pre	n/a	n/a	n/a	n/a	n/a
130.0	2.0133181530109	5	early	em_task	n/a	n/a	n/a	n/a	21.2811123974159
132.0133181530109	0.75	5	early	em_task_post	n/a	n/a	n/a	n/a	n/a
140.0	1.5	6	late	stimulus	n/a	52.5	n/a	n/a	n/a
151.5	0.5	6	late	dm_task_pre	n/a	n/a	n/a	n/a	n/a
152.0	0.769673133007018	6	late	dm_task	0.769673133007018	n/a	0.0	1.0	n/a
152.76967313300702	0.75	6	late	dm_task_post	n/a	n/a	n/a	n/a	n/a
157.5	0.5	6	late	em_task_pre	n/a	n/a	n/a	n/a	n/a
158.0	2.605419354018501	6	late	em_task	n/a	n/a	n/a	n/a	38.5711897047183
160.6054193540185	0.75	6	late	em_task_post	n/a	n/a	n/a	n/a	n/a
168.0	1.5	7	early	stimulus	n/a	105.0	n/a	n/a	n/a
173.5	0.5	7	early	dm_task_pre	n/a	n/a	n/a	n/a	n/a
174.0	0.761642678000499	7	early	dm_task	0.761642678000499	n/a	-4.0	1.0	n/a
174.7616426780005	0.75	7	early	dm_task_post	n/a	n/a	n/a	n/a	n/a
185.5	0.5	7	early	em_task_pre	n/a	n/a	n/a	n/a	n/a
186.0	1.6495499470037984	7	early	em_task	n/a	n/a	n/a	n/a	116.798206952792
187.6495499470038	0.75	7	early	em_task_post	n/a	n/a	n/a	n/a	n/a
196.0	1.5	8	early	stimulus	n/a	127.5	n/a	n/a	n/a
201.5	0.5	8	early	dm_task_pre	n/a	n/a	n/a	n/a	n/a
202.0	1.2534302190179	8	early	dm_task	1.2534302190179	n/a	21.0	-1.0	n/a
203.2534302190179	0.75	8	early	dm_task_post	n/a	n/a	n/a	n/a	n/a
213.5	0.5	8	early	em_task_pre	n/a	n/a	n/a	n/a	n/a
214.0	1.2589664330008006	8	early	em_task	n/a	n/a	n/a	n/a	141.019280967983
215.2589664330008	0.75	8	early	em_task_post	n/a	n/a	n/a	n/a	n/a
224.0	1.5	9	early	stimulus	n/a	82.5	n/a	n/a	n/a
229.5	0.5	9	early	dm_task_pre	n/a	n/a	n/a	n/a	n/a
230.0	0.529047796007944	9	early	dm_task	0.529047796007944	n/a	4.0	-1.0	n/a
230.52904779600794	0.75	9	early	dm_task_post	n/a	n/a	n/a	n/a	n/a
241.5	0.5	9	early	em_task_pre	n/a	n/a	n/a	n/a	n/a
242.0	1.3835038980177998	9	early	em_task	n/a	n/a	n/a	n/a	71.8972403987488
243.3835038980178	0.75	9	early	em_task_post	n/a	n/a	n/a	n/a	n/a
252.0	1.5	10	late	stimulus	n/a	90.0	n/a	n/a	n/a
263.5	0.5	10	late	dm_task_pre	n/a	n/a	n/a	n/a	n/a
264.0	0.57273592799902	10	late	dm_task	0.57273592799902	n/a	0.0	-1.0	n/a
264.572735927999	0.75	10	late	dm_task_post	n/a	n/a	n/a	n/a	n/a
269.5	0.5	10	late	em_task_pre	n/a	n/a	n/a	n/a	n/a
270.0	1.4940691470110004	10	late	em_task	n/a	n/a	n/a	n/a	84.8843757258485
271.494069147011	0.75	10	late	em_task_post	n/a	n/a	n/a	n/a	n/a
280.0	1.5	11	late	stimulus	n/a	67.5	n/a	n/a	n/a
291.5	0.5	11	late	dm_task_pre	n/a	n/a	n/a	n/a	n/a
292.0	0.815567122015636	11	late	dm_task	0.815567122015636	n/a	0.0	-1.0	n/a
292.81556712201564	0.75	11	late	dm_task_post	n/a	n/a	n/a	n/a	n/a
297.5	0.5	11	late	em_task_pre	n/a	n/a	n/a	n/a	n/a
298.0	2.2856739599955986	11	late	em_task	n/a	n/a	n/a	n/a	58.0378685180071
300.2856739599956	0.75	11	late	em_task_post	n/a	n/a	n/a	n/a	n/a
308.0	1.5	12	late	stimulus	n/a	120.0	n/a	n/a	n/a
319.5	0.5	12	late	dm_task_pre	n/a	n/a	n/a	n/a	n/a
320.0	1.07607428799383	12	late	dm_task	1.07607428799383	n/a	4.0	1.0	n/a
321.07607428799383	0.75	12	late	dm_task_post	n/a	n/a	n/a	n/a	n/a
325.5	0.5	12	late	em_task_pre	n/a	n/a	n/a	n/a	n/a
326.0	1.2268076850159986	12	late	em_task	n/a	n/a	n/a	n/a	125.775273216548
327.226807685016	0.75	12	late	em_task_post	n/a	n/a	n/a	n/a	n/a
