onset	duration	trial	trial_type	event_type	response_time	value_stimulus	value_reference	response_decision	response_estimation
0.0	1.5	1	early	stimulus	n/a	37.5	n/a	n/a	n/a
5.5	0.5	1	early	dm_task_pre	n/a	n/a	n/a	n/a	n/a
6.0	1.19749510700058	1	early	dm_task	1.19749510700058	n/a	4.0	-1.0	n/a
7.19749510700058	0.75	1	early	dm_task_post	n/a	n/a	n/a	n/a	n/a
17.5	0.5	1	early	em_task_pre	n/a	n/a	n/a	n/a	n/a
18.0	1.743555907000001	1	early	em_task	n/a	n/a	n/a	n/a	32.7434092566558
19.743555907	0.75	1	early	em_task_post	n/a	n/a	n/a	n/a	n/a
28.0	1.5	2	late	stimulus	n/a	90.0	n/a	n/a	n/a
39.5	0.5	2	late	dm_task_pre	n/a	n/a	n/a	n/a	n/a
40.0	1.33592263399987	2	late	dm_task	1.33592263399987	n/a	-4.0	1.0	n/a
41.33592263399987	0.75	2	late	dm_task_post	n/a	n/a	n/a	n/a	n/a
45.5	0.5	2	late	em_task_pre	n/a	n/a	n/a	n/a	n/a
46.0	2.1174530419994007	2	late	em_task	n/a	n/a	n/a	n/a	86.3408265555981
48.1174530419994	0.75	2	late	em_task_post	n/a	n/a	n/a	n/a	n/a
56.0	1.5	3	early	stimulus	n/a	67.5	n/a	n/a	n/a
61.5	0.5	3	early	dm_task_pre	n/a	n/a	n/a	n/a	n/a
62.0	0.662599015002343	3	early	dm_task	0.662599015002343	n/a	4.0	-1.0	n/a
62.66259901500234	0.75	3	early	dm_task_post	n/a	n/a	n/a	n/a	n/a
73.5	0.5	3	early	em_task_pre	n/a	n/a	n/a	n/a	n/a
74.0	1.3571128670009998	3	early	em_task	n/a	n/a	n/a	n/a	59.7149634426933
75.357112867001	0.75	3	early	em_task_post	n/a	n/a	n/a	n/a	n/a
84.0	1.5	4	late	stimulus	n/a	22.5	n/a	n/a	n/a
95.5	0.5	4	late	dm_task_pre	n/a	n/a	n/a	n/a	n/a
96.0	1.19889602400144	4	late	dm_task	1.19889602400144	n/a	21.0	-1.0	n/a
97.19889602400144	0.75	4	late	dm_task_post	n/a	n/a	n/a	n/a	n/a
101.5	0.5	4	late	em_task_pre	n/a	n/a	n/a	n/a	n/a
102.0	3.362166041002599	4	late	em_task	n/a	n/a	n/a	n/a	13.078567469412
105.3621660410026	0.75	4	late	em_task_post	n/a	n/a	n/a	n/a	n/a
112.0	1.5	5	early	stimulus	n/a	105.0	n/a	n/a	n/a
117.5	0.5	5	early	dm_task_pre	n/a	n/a	n/a	n/a	n/a
118.0	0.607539283002552	5	early	dm_task	0.607539283002552	n/a	4.0	1.0	n/a
118.60753928300255	0.75	5	early	dm_task_post	n/a	n/a	n/a	n/a	n/a
129.5	0.5	5	early	em_task_pre	n/a	n/a	n/a	n/a	n/a
130.0	3.5856613489996008	5	early	em_task	n/a	n/a	n/a	n/a	115.368810890664
133.5856613489996	0.75	5	early	em_task_post	n/a	n/a	n/a	n/a	n/a
140.0	1.5	6	early	stimulus	n/a	120.0	n/a	n/a	n/a
145.5	0.5	6	early	dm_task_pre	n/a	n/a	n/a	n/a	n/a
146.0	0.863840412999707	6	early	dm_task	0.863840412999707	n/a	4.0	1.0	n/a
146.8638404129997	0.75	6	early	dm_task_post	n/a	n/a	n/a	n/a	n/a
157.5	0.5	6	early	em_task_pre	n/a	n/a	n/a	n/a	n/a
158.0	1.4928457040005014	6	early	em_task	n/a	n/a	n/a	n/a	29.9098748796012
159.4928457040005	0.75	6	early	em_task_post	n/a	n/a	n/a	n/a	n/a
168.0	1.5	7	early	stimulus	n/a	60.0	n/a	n/a	n/a
173.5	0.5	7	early	dm_task_pre	n/a	n/a	n/a	n/a	n/a
174.0	0.687824925000314	7	early	dm_task	0.687824925000314	n/a	-4.0	-1.0	n/a
174.6878249250003	0.75	7	early	dm_task_post	n/a	n/a	n/a	n/a	n/a
185.5	0.5	7	early	em_task_pre	n/a	n/a	n/a	n/a	n/a
186.0	3.149407409000599	7	early	em_task	n/a	n/a	n/a	n/a	33.5775395533598
189.1494074090006	0.75	7	early	em_task_post	n/a	n/a	n/a	n/a	n/a
196.0	1.5	8	early	stimulus	n/a	165.0	n/a	n/a	n/a
201.5	0.5	8	early	dm_task_pre	n/a	n/a	n/a	n/a	n/a
202.0	0.910400501001277	8	early	dm_task	0.910400501001277	n/a	0.0	-1.0	n/a
202.91040050100128	0.75	8	early	dm_task_post	n/a	n/a	n/a	n/a	n/a
213.5	0.5	8	early	em_task_pre	n/a	n/a	n/a	n/a	n/a
214.0	1.5733914270021998	8	early	em_task	n/a	n/a	n/a	n/a	156.051269592852
215.5733914270022	0.75	8	early	em_task_post	n/a	n/a	n/a	n/a	n/a
224.0	1.5	9	early	stimulus	n/a	52.5	n/a	n/a	n/a
229.5	0.5	9	early	dm_task_pre	n/a	n/a	n/a	n/a	n/a
230.0	0.533083296999393	9	early	dm_task	0.533083296999393	n/a	21.0	-1.0	n/a
230.5330832969994	0.75	9	early	dm_task_post	n/a	n/a	n/a	n/a	n/a
241.5	0.5	9	early	em_task_pre	n/a	n/a	n/a	n/a	n/a
242.0	3.477472828999499	9	early	em_task	n/a	n/a	n/a	n/a	55.3382753231327
245.4774728289995	0.75	9	early	em_task_post	n/a	n/a	n/a	n/a	n/a
252.0	1.5	10	early	stimulus	n/a	97.5	n/a	n/a	n/a
257.5	0.5	10	early	dm_task_pre	n/a	n/a	n/a	n/a	n/a
258.0	0.939582527000312	10	early	dm_task	0.939582527000312	n/a	-21.0	1.0	n/a
258.9395825270003	0.75	10	early	dm_task_post	n/a	n/a	n/a	n/a	n/a
269.5	0.5	10	early	em_task_pre	n/a	n/a	n/a	n/a	n/a
270.0	2.201910623	10	early	em_task	n/a	n/a	n/a	n/a	115.856356736886
272.201910623	0.75	10	early	em_task_post	n/a	n/a	n/a	n/a	n/a
280.0	1.5	11	early	stimulus	n/a	157.5	n/a	n/a	n/a
285.5	0.5	11	early	dm_task_pre	n/a	n/a	n/a	n/a	n/a
286.0	0.712663759000861	11	early	dm_task	0.712663759000861	n/a	-21.0	1.0	n/a
286.71266375900086	0.75	11	early	dm_task_post	n/a	n/a	n/a	n/a	n/a
297.5	0.5	11	early	em_task_pre	n/a	n/a	n/a	n/a	n/a
298.0	2.8748866580027013	11	early	em_task	n/a	n/a	n/a	n/a	153.528344730785
300.8748866580027	0.75	11	early	em_task_post	n/a	n/a	n/a	n/a	n/a
308.0	1.5	12	early	stimulus	n/a	127.5	n/a	n/a	n/a
313.5	0.5	12	early	dm_task_pre	n/a	n/a	n/a	n/a	n/a
314.0	0.869627246000164	12	early	dm_task	0.869627246000164	n/a	4.0	1.0	n/a
314.86962724600016	0.75	12	early	dm_task_post	n/a	n/a	n/a	n/a	n/a
325.5	0.5	12	early	em_task_pre	n/a	n/a	n/a	n/a	n/a
326.0	2.1492450219993984	12	early	em_task	n/a	n/a	n/a	n/a	134.668896606089
328.1492450219994	0.75	12	early	em_task_post	n/a	n/a	n/a	n/a	n/a
