onset	duration	trial	trial_type	event_type	response_time	value_stimulus	value_reference	response_decision	response_estimation
0.0	1.5	1	early	stimulus	n/a	127.5	n/a	n/a	n/a
5.5	0.5	1	early	dm_task_pre	n/a	n/a	n/a	n/a	n/a
6.0	0.466498208988924	1	early	dm_task	0.466498208988924	n/a	-4.0	1.0	n/a
6.466498208988924	0.75	1	early	dm_task_post	n/a	n/a	n/a	n/a	n/a
17.5	0.5	1	early	em_task_pre	n/a	n/a	n/a	n/a	n/a
18.0	2.2216932369919995	1	early	em_task	n/a	n/a	n/a	n/a	122.727240541409
20.221693236992	0.75	1	early	em_task_post	n/a	n/a	n/a	n/a	n/a
28.0	1.5	2	late	stimulus	n/a	165.0	n/a	n/a	n/a
39.5	0.5	2	late	dm_task_pre	n/a	n/a	n/a	n/a	n/a
40.0	0.559721867990447	2	late	dm_task	0.559721867990447	n/a	-4.0	-1.0	n/a
40.55972186799045	0.75	2	late	dm_task_post	n/a	n/a	n/a	n/a	n/a
45.5	0.5	2	late	em_task_pre	n/a	n/a	n/a	n/a	n/a
46.0	1.6973367369791994	2	late	em_task	n/a	n/a	n/a	n/a	157.32342614608
47.697336736979196	0.75	2	late	em_task_post	n/a	n/a	n/a	n/a	n/a
56.0	1.5	3	early	stimulus	n/a	45.0	n/a	n/a	n/a
61.5	0.5	3	early	dm_task_pre	n/a	n/a	n/a	n/a	n/a
62.0	0.468694290000712	3	early	dm_task	0.468694290000712	n/a	4.0	-1.0	n/a
62.46869429000071	0.75	3	early	dm_task_post	n/a	n/a	n/a	n/a	n/a
73.5	0.5	3	early	em_task_pre	n/a	n/a	n/a	n/a	n/a
74.0	1.7554828369756983	3	early	em_task	n/a	n/a	n/a	n/a	26.5787042986085
75.7554828369757	0.75	3	early	em_task_post	n/a	n/a	n/a	n/a	n/a
84.0	1.5	4	early	stimulus	n/a	135.0	n/a	n/a	n/a
89.5	0.5	4	early	dm_task_pre	n/a	n/a	n/a	n/a	n/a
90.0	0.560163553978782	4	early	dm_task	0.560163553978782	n/a	-4.0	1.0	n/a
90.56016355397878	0.75	4	early	dm_task_post	n/a	n/a	n/a	n/a	n/a
101.5	0.5	4	early	em_task_pre	n/a	n/a	n/a	n/a	n/a
102.0	1.6486706179858004	4	early	em_task	n/a	n/a	n/a	n/a	136.427627321256
103.6486706179858	0.75	4	early	em_task_post	n/a	n/a	n/a	n/a	n/a
112.0	1.5	5	late	stimulus	n/a	150.0	n/a	n/a	n/a
123.5	0.5	5	late	dm_task_pre	n/a	n/a	n/a	n/a	n/a
124.0	0.569965881004464	5	late	dm_task	0.569965881004464	n/a	21.0	-1.0	n/a
124.56996588100446	0.75	5	late	dm_task_post	n/a	n/a	n/a	n/a	n/a
129.5	0.5	5	late	em_task_pre	n/a	n/a	n/a	n/a	n/a
130.0	1.7404367669950993	5	late	em_task	n/a	n/a	n/a	n/a	155.22441576631
131.7404367669951	0.75	5	late	em_task_post	n/a	n/a	n/a	n/a	n/a
140.0	1.5	6	early	stimulus	n/a	112.5	n/a	n/a	n/a
145.5	0.5	6	early	dm_task_pre	n/a	n/a	n/a	n/a	n/a
146.0	0.646255483996356	6	early	dm_task	0.646255483996356	n/a	4.0	1.0	n/a
146.64625548399636	0.75	6	early	dm_task_post	n/a	n/a	n/a	n/a	n/a
157.5	0.5	6	early	em_task_pre	n/a	n/a	n/a	n/a	n/a
158.0	1.7329354309767986	6	early	em_task	n/a	n/a	n/a	n/a	116.039291530939
159.7329354309768	0.75	6	early	em_task_post	n/a	n/a	n/a	n/a	n/a
168.0	1.5	7	early	stimulus	n/a	157.5	n/a	n/a	n/a
173.5	0.5	7	early	dm_task_pre	n/a	n/a	n/a	n/a	n/a
174.0	0.45503250497859	7	early	dm_task	0.45503250497859	n/a	-21.0	1.0	n/a
174.4550325049786	0.75	7	early	dm_task_post	n/a	n/a	n/a	n/a	n/a
185.5	0.5	7	early	em_task_pre	n/a	n/a	n/a	n/a	n/a
186.0	1.3589977549854986	7	early	em_task	n/a	n/a	n/a	n/a	145.874489837297
187.3589977549855	0.75	7	early	em_task_post	n/a	n/a	n/a	n/a	n/a
196.0	1.5	8	early	stimulus	n/a	120.0	n/a	n/a	n/a
201.5	0.5	8	early	dm_task_pre	n/a	n/a	n/a	n/a	n/a
202.0	0.713915464992169	8	early	dm_task	0.713915464992169	n/a	0.0	1.0	n/a
202.71391546499217	0.75	8	early	dm_task_post	n/a	n/a	n/a	n/a	n/a
213.5	0.5	8	early	em_task_pre	n/a	n/a	n/a	n/a	n/a
214.0	1.2176933729788004	8	early	em_task	n/a	n/a	n/a	n/a	123.208107249517
215.2176933729788	0.75	8	early	em_task_post	n/a	n/a	n/a	n/a	n/a
224.0	1.5	9	late	stimulus	n/a	52.5	n/a	n/a	n/a
235.5	0.5	9	late	dm_task_pre	n/a	n/a	n/a	n/a	n/a
236.0	0.473938294977415	9	late	dm_task	0.473938294977415	n/a	21.0	-1.0	n/a
236.47393829497742	0.75	9	late	dm_task_post	n/a	n/a	n/a	n/a	n/a
241.5	0.5	9	late	em_task_pre	n/a	n/a	n/a	n/a	n/a
242.0	1.9962399289942994	9	late	em_task	n/a	n/a	n/a	n/a	41.7972356556227
243.9962399289943	0.75	9	late	em_task_post	n/a	n/a	n/a	n/a	n/a
252.0	1.5	10	late	stimulus	n/a	30.0	n/a	n/a	n/a
263.5	0.5	10	late	dm_task_pre	n/a	n/a	n/a	n/a	n/a
264.0	0.766425252979388	10	late	dm_task	0.766425252979388	n/a	-4.0	1.0	n/a
264.7664252529794	0.75	10	late	dm_task_post	n/a	n/a	n/a	n/a	n/a
269.5	0.5	10	late	em_task_pre	n/a	n/a	n/a	n/a	n/a
270.0	1.8013631529757	10	late	em_task	n/a	n/a	n/a	n/a	23.085222771055
271.8013631529757	0.75	10	late	em_task_post	n/a	n/a	n/a	n/a	n/a
280.0	1.5	11	early	stimulus	n/a	0.0	n/a	n/a	n/a
285.5	0.5	11	early	dm_task_pre	n/a	n/a	n/a	n/a	n/a
286.0	0.657781524991151	11	early	dm_task	0.657781524991151	n/a	-4.0	-1.0	n/a
286.65778152499115	0.75	11	early	dm_task_post	n/a	n/a	n/a	n/a	n/a
297.5	0.5	11	early	em_task_pre	n/a	n/a	n/a	n/a	n/a
298.0	1.6786829209885994	11	early	em_task	n/a	n/a	n/a	n/a	174.770746278069
299.6786829209886	0.75	11	early	em_task_post	n/a	n/a	n/a	n/a	n/a
308.0	1.5	12	late	stimulus	n/a	75.0	n/a	n/a	n/a
319.5	0.5	12	late	dm_task_pre	n/a	n/a	n/a	n/a	n/a
320.0	0.483723126992118	12	late	dm_task	0.483723126992118	n/a	21.0	-1.0	n/a
320.4837231269921	0.75	12	late	dm_task_post	n/a	n/a	n/a	n/a	n/a
325.5	0.5	12	late	em_task_pre	n/a	n/a	n/a	n/a	n/a
326.0	1.520739445986699	12	late	em_task	n/a	n/a	n/a	n/a	77.1576537710095
327.5207394459867	0.75	12	late	em_task_post	n/a	n/a	n/a	n/a	n/a
