onset	duration	trial	trial_type	event_type	response_time	value_stimulus	value_reference	response_decision	response_estimation
0.0	1.5	1	late	stimulus	n/a	157.5	n/a	n/a	n/a
11.5	0.5	1	late	dm_task_pre	n/a	n/a	n/a	n/a	n/a
12.0	1.08755409298465	1	late	dm_task	1.08755409298465	n/a	-21.0	1.0	n/a
13.08755409298465	0.75	1	late	dm_task_post	n/a	n/a	n/a	n/a	n/a
17.5	0.5	1	late	em_task_pre	n/a	n/a	n/a	n/a	n/a
18.0	2.2535137749800995	1	late	em_task	n/a	n/a	n/a	n/a	143.198358152813
20.2535137749801	0.75	1	late	em_task_post	n/a	n/a	n/a	n/a	n/a
28.0	1.5	2	late	stimulus	n/a	30.0	n/a	n/a	n/a
39.5	0.5	2	late	dm_task_pre	n/a	n/a	n/a	n/a	n/a
40.0	0.72862391298986	2	late	dm_task	0.72862391298986	n/a	-4.0	1.0	n/a
40.72862391298986	0.75	2	late	dm_task_post	n/a	n/a	n/a	n/a	n/a
45.5	0.5	2	late	em_task_pre	n/a	n/a	n/a	n/a	n/a
46.0	2.8420866459782985	2	late	em_task	n/a	n/a	n/a	n/a	51.600251953217
48.8420866459783	0.75	2	late	em_task_post	n/a	n/a	n/a	n/a	n/a
56.0	1.5	3	early	stimulus	n/a	150.0	n/a	n/a	n/a
61.5	0.5	3	early	dm_task_pre	n/a	n/a	n/a	n/a	n/a
62.0	0.705280219000997	3	early	dm_task	0.705280219000997	n/a	-4.0	-1.0	n/a
62.705280219001	0.75	3	early	dm_task_post	n/a	n/a	n/a	n/a	n/a
73.5	0.5	3	early	em_task_pre	n/a	n/a	n/a	n/a	n/a
74.0	2.5507478920043987	3	early	em_task	n/a	n/a	n/a	n/a	139.243993614507
76.5507478920044	0.75	3	early	em_task_post	n/a	n/a	n/a	n/a	n/a
84.0	1.5	4	late	stimulus	n/a	90.0	n/a	n/a	n/a
95.5	0.5	4	late	dm_task_pre	n/a	n/a	n/a	n/a	n/a
96.0	0.807246574986493	4	late	dm_task	0.807246574986493	n/a	0.0	-1.0	n/a
96.8072465749865	0.75	4	late	dm_task_post	n/a	n/a	n/a	n/a	n/a
101.5	0.5	4	late	em_task_pre	n/a	n/a	n/a	n/a	n/a
102.0	3.6869655739865017	4	late	em_task	n/a	n/a	n/a	n/a	85.1529041581423
105.6869655739865	0.75	4	late	em_task_post	n/a	n/a	n/a	n/a	n/a
112.0	1.5	5	late	stimulus	n/a	120.0	n/a	n/a	n/a
123.5	0.5	5	late	dm_task_pre	n/a	n/a	n/a	n/a	n/a
124.0	1.03066197098815	5	late	dm_task	1.03066197098815	n/a	-4.0	-1.0	n/a
125.03066197098815	0.75	5	late	dm_task_post	n/a	n/a	n/a	n/a	n/a
129.5	0.5	5	late	em_task_pre	n/a	n/a	n/a	n/a	n/a
130.0	3.2631137139978996	5	late	em_task	n/a	n/a	n/a	n/a	102.992403340743
133.2631137139979	0.75	5	late	em_task_post	n/a	n/a	n/a	n/a	n/a
140.0	1.5	6	early	stimulus	n/a	75.0	n/a	n/a	n/a
145.5	0.5	6	early	dm_task_pre	n/a	n/a	n/a	n/a	n/a
146.0	0.890147289988818	6	early	dm_task	0.890147289988818	n/a	4.0	-1.0	n/a
146.89014728998882	0.75	6	early	dm_task_post	n/a	n/a	n/a	n/a	n/a
157.5	0.5	6	early	em_task_pre	n/a	n/a	n/a	n/a	n/a
158.0	2.5039333149907	6	early	em_task	n/a	n/a	n/a	n/a	71.3042496599575
160.5039333149907	0.75	6	early	em_task_post	n/a	n/a	n/a	n/a	n/a
168.0	1.5	7	early	stimulus	n/a	60.0	n/a	n/a	n/a
173.5	0.5	7	early	dm_task_pre	n/a	n/a	n/a	n/a	n/a
174.0	0.695984329999192	7	early	dm_task	0.695984329999192	n/a	-21.0	1.0	n/a
174.6959843299992	0.75	7	early	dm_task_post	n/a	n/a	n/a	n/a	n/a
185.5	0.5	7	early	em_task_pre	n/a	n/a	n/a	n/a	n/a
186.0	3.1929171719820992	7	early	em_task	n/a	n/a	n/a	n/a	60.2640932007909
189.1929171719821	0.75	7	early	em_task_post	n/a	n/a	n/a	n/a	n/a
196.0	1.5	8	early	stimulus	n/a	22.5	n/a	n/a	n/a
201.5	0.5	8	early	dm_task_pre	n/a	n/a	n/a	n/a	n/a
202.0	1.5	8	early	dm_task	1.90259034698829	n/a	0.0	1.0	n/a
203.5	0.75	8	early	dm_task_post	n/a	n/a	n/a	n/a	n/a
213.5	0.5	8	early	em_task_pre	n/a	n/a	n/a	n/a	n/a
214.0	3.2981833819940007	8	early	em_task	n/a	n/a	n/a	n/a	31.984400323313
217.298183381994	0.75	8	early	em_task_post	n/a	n/a	n/a	n/a	n/a
224.0	1.5	9	late	stimulus	n/a	105.0	n/a	n/a	n/a
235.5	0.5	9	late	dm_task_pre	n/a	n/a	n/a	n/a	n/a
236.0	0.491114716976881	9	late	dm_task	0.491114716976881	n/a	-21.0	1.0	n/a
236.49111471697688	0.75	9	late	dm_task_post	n/a	n/a	n/a	n/a	n/a
241.5	0.5	9	late	em_task_pre	n/a	n/a	n/a	n/a	n/a
242.0	1.7054380129848	9	late	em_task	n/a	n/a	n/a	n/a	109.923384774676
243.7054380129848	0.75	9	late	em_task_post	n/a	n/a	n/a	n/a	n/a
252.0	1.5	10	late	stimulus	n/a	0.0	n/a	n/a	n/a
263.5	0.5	10	late	dm_task_pre	n/a	n/a	n/a	n/a	n/a
264.0	0.780760057998123	10	late	dm_task	0.780760057998123	n/a	-4.0	-1.0	n/a
264.7807600579981	0.75	10	late	dm_task_post	n/a	n/a	n/a	n/a	n/a
269.5	0.5	10	late	em_task_pre	n/a	n/a	n/a	n/a	n/a
270.0	4.010124650987599	10	late	em_task	n/a	n/a	n/a	n/a	173.123367005286
274.0101246509876	0.75	10	late	em_task_post	n/a	n/a	n/a	n/a	n/a
280.0	1.5	11	early	stimulus	n/a	15.0	n/a	n/a	n/a
285.5	0.5	11	early	dm_task_pre	n/a	n/a	n/a	n/a	n/a
286.0	0.754720830998849	11	early	dm_task	0.754720830998849	n/a	21.0	-1.0	n/a
286.75472083099885	0.75	11	early	dm_task_post	n/a	n/a	n/a	n/a	n/a
297.5	0.5	11	early	em_task_pre	n/a	n/a	n/a	n/a	n/a
298.0	2.517316315992499	11	early	em_task	n/a	n/a	n/a	n/a	11.0884213665014
300.5173163159925	0.75	11	early	em_task_post	n/a	n/a	n/a	n/a	n/a
308.0	1.5	12	late	stimulus	n/a	37.5	n/a	n/a	n/a
319.5	0.5	12	late	dm_task_pre	n/a	n/a	n/a	n/a	n/a
320.0	0.675802048004698	12	late	dm_task	0.675802048004698	n/a	-21.0	1.0	n/a
320.6758020480047	0.75	12	late	dm_task_post	n/a	n/a	n/a	n/a	n/a
325.5	0.5	12	late	em_task_pre	n/a	n/a	n/a	n/a	n/a
326.0	2.890486716991301	12	late	em_task	n/a	n/a	n/a	n/a	23.2262649782485
328.8904867169913	0.75	12	late	em_task_post	n/a	n/a	n/a	n/a	n/a
