onset	duration	trial	trial_type	event_type	response_time	value_stimulus	value_reference	response_decision	response_estimation
0.0	1.5	1	early	stimulus	n/a	7.5	n/a	n/a	n/a
5.5	0.5	1	early	dm_task_pre	n/a	n/a	n/a	n/a	n/a
6.0	0.73981936799828	1	early	dm_task	0.73981936799828	n/a	21.0	-1.0	n/a
6.73981936799828	0.75	1	early	dm_task_post	n/a	n/a	n/a	n/a	n/a
17.5	0.5	1	early	em_task_pre	n/a	n/a	n/a	n/a	n/a
18.0	2.7005725000054	1	early	em_task	n/a	n/a	n/a	n/a	25.0630975761492
20.7005725000054	0.75	1	early	em_task_post	n/a	n/a	n/a	n/a	n/a
28.0	1.5	2	early	stimulus	n/a	82.5	n/a	n/a	n/a
33.5	0.5	2	early	dm_task_pre	n/a	n/a	n/a	n/a	n/a
34.0	0.593651292001596	2	early	dm_task	0.593651292001596	n/a	4.0	-1.0	n/a
34.593651292001596	0.75	2	early	dm_task_post	n/a	n/a	n/a	n/a	n/a
45.5	0.5	2	early	em_task_pre	n/a	n/a	n/a	n/a	n/a
46.0	3.037377099011799	2	early	em_task	n/a	n/a	n/a	n/a	77.0138585323134
49.0373770990118	0.75	2	early	em_task_post	n/a	n/a	n/a	n/a	n/a
56.0	1.5	3	early	stimulus	n/a	127.5	n/a	n/a	n/a
61.5	0.5	3	early	dm_task_pre	n/a	n/a	n/a	n/a	n/a
62.0	1.13756152099813	3	early	dm_task	1.13756152099813	n/a	4.0	1.0	n/a
63.13756152099813	0.75	3	early	dm_task_post	n/a	n/a	n/a	n/a	n/a
73.5	0.5	3	early	em_task_pre	n/a	n/a	n/a	n/a	n/a
74.0	1.7760975270065984	3	early	em_task	n/a	n/a	n/a	n/a	129.567630727075
75.7760975270066	0.75	3	early	em_task_post	n/a	n/a	n/a	n/a	n/a
84.0	1.5	4	early	stimulus	n/a	60.0	n/a	n/a	n/a
89.5	0.5	4	early	dm_task_pre	n/a	n/a	n/a	n/a	n/a
90.0	0.974774008995155	4	early	dm_task	0.974774008995155	n/a	4.0	-1.0	n/a
90.97477400899515	0.75	4	early	dm_task_post	n/a	n/a	n/a	n/a	n/a
101.5	0.5	4	early	em_task_pre	n/a	n/a	n/a	n/a	n/a
102.0	3.746274103992601	4	early	em_task	n/a	n/a	n/a	n/a	73.9416902554626
105.7462741039926	0.75	4	early	em_task_post	n/a	n/a	n/a	n/a	n/a
112.0	1.5	5	early	stimulus	n/a	30.0	n/a	n/a	n/a
117.5	0.5	5	early	dm_task_pre	n/a	n/a	n/a	n/a	n/a
118.0	0.575884632009547	5	early	dm_task	0.575884632009547	n/a	-4.0	1.0	n/a
118.57588463200955	0.75	5	early	dm_task_post	n/a	n/a	n/a	n/a	n/a
129.5	0.5	5	early	em_task_pre	n/a	n/a	n/a	n/a	n/a
130.0	2.6671212849906	5	early	em_task	n/a	n/a	n/a	n/a	35.1946388949424
132.6671212849906	0.75	5	early	em_task_post	n/a	n/a	n/a	n/a	n/a
140.0	1.5	6	early	stimulus	n/a	142.5	n/a	n/a	n/a
145.5	0.5	6	early	dm_task_pre	n/a	n/a	n/a	n/a	n/a
146.0	0.469585062004626	6	early	dm_task	0.469585062004626	n/a	21.0	-1.0	n/a
146.46958506200463	0.75	6	early	dm_task_post	n/a	n/a	n/a	n/a	n/a
157.5	0.5	6	early	em_task_pre	n/a	n/a	n/a	n/a	n/a
158.0	2.4961556089984	6	early	em_task	n/a	n/a	n/a	n/a	143.008784262374
160.4961556089984	0.75	6	early	em_task_post	n/a	n/a	n/a	n/a	n/a
168.0	1.5	7	late	stimulus	n/a	150.0	n/a	n/a	n/a
179.5	0.5	7	late	dm_task_pre	n/a	n/a	n/a	n/a	n/a
180.0	0.814408834994538	7	late	dm_task	0.814408834994538	n/a	0.0	-1.0	n/a
180.81440883499454	0.75	7	late	dm_task_post	n/a	n/a	n/a	n/a	n/a
185.5	0.5	7	late	em_task_pre	n/a	n/a	n/a	n/a	n/a
186.0	2.858739996998299	7	late	em_task	n/a	n/a	n/a	n/a	135.702608513333
188.8587399969983	0.75	7	late	em_task_post	n/a	n/a	n/a	n/a	n/a
196.0	1.5	8	late	stimulus	n/a	135.0	n/a	n/a	n/a
207.5	0.5	8	late	dm_task_pre	n/a	n/a	n/a	n/a	n/a
208.0	1.5	8	late	dm_task	n/a	n/a	-21.0	n/a	n/a
209.5	0.75	8	late	dm_task_post	n/a	n/a	n/a	n/a	n/a
213.5	0.5	8	late	em_task_pre	n/a	n/a	n/a	n/a	n/a
214.0	2.9971402650117014	8	late	em_task	n/a	n/a	n/a	n/a	118.136096429879
216.9971402650117	0.75	8	late	em_task_post	n/a	n/a	n/a	n/a	n/a
224.0	1.5	9	early	stimulus	n/a	90.0	n/a	n/a	n/a
229.5	0.5	9	early	dm_task_pre	n/a	n/a	n/a	n/a	n/a
230.0	0.62257714298903	9	early	dm_task	0.62257714298903	n/a	-21.0	1.0	n/a
230.62257714298903	0.75	9	early	dm_task_post	n/a	n/a	n/a	n/a	n/a
241.5	0.5	9	early	em_task_pre	n/a	n/a	n/a	n/a	n/a
242.0	2.4843861729895984	9	early	em_task	n/a	n/a	n/a	n/a	90.6283356515335
244.4843861729896	0.75	9	early	em_task_post	n/a	n/a	n/a	n/a	n/a
252.0	1.5	10	late	stimulus	n/a	172.5	n/a	n/a	n/a
263.5	0.5	10	late	dm_task_pre	n/a	n/a	n/a	n/a	n/a
264.0	0.675103684014175	10	late	dm_task	0.675103684014175	n/a	-4.0	1.0	n/a
264.6751036840142	0.75	10	late	dm_task_post	n/a	n/a	n/a	n/a	n/a
269.5	0.5	10	late	em_task_pre	n/a	n/a	n/a	n/a	n/a
270.0	2.5391098519904	10	late	em_task	n/a	n/a	n/a	n/a	177.131781276405
272.5391098519904	0.75	10	late	em_task_post	n/a	n/a	n/a	n/a	n/a
280.0	1.5	11	late	stimulus	n/a	120.0	n/a	n/a	n/a
291.5	0.5	11	late	dm_task_pre	n/a	n/a	n/a	n/a	n/a
292.0	0.563168368011247	11	late	dm_task	0.563168368011247	n/a	4.0	1.0	n/a
292.56316836801125	0.75	11	late	dm_task_post	n/a	n/a	n/a	n/a	n/a
297.5	0.5	11	late	em_task_pre	n/a	n/a	n/a	n/a	n/a
298.0	3.7925203290069014	11	late	em_task	n/a	n/a	n/a	n/a	138.13122239366
301.7925203290069	0.75	11	late	em_task_post	n/a	n/a	n/a	n/a	n/a
308.0	1.5	12	early	stimulus	n/a	75.0	n/a	n/a	n/a
313.5	0.5	12	early	dm_task_pre	n/a	n/a	n/a	n/a	n/a
314.0	1.07281391599099	12	early	dm_task	1.07281391599099	n/a	-21.0	1.0	n/a
315.072813915991	0.75	12	early	dm_task_post	n/a	n/a	n/a	n/a	n/a
325.5	0.5	12	early	em_task_pre	n/a	n/a	n/a	n/a	n/a
326.0	3.5637283819960004	12	early	em_task	n/a	n/a	n/a	n/a	46.992060212433
329.563728381996	0.75	12	early	em_task_post	n/a	n/a	n/a	n/a	n/a
