onset	duration	trial	trial_type	event_type	response_time	value_stimulus	value_reference	response_decision	response_estimation
0.0	1.5	1	late	stimulus	n/a	37.5	n/a	n/a	n/a
11.5	0.5	1	late	dm_task_pre	n/a	n/a	n/a	n/a	n/a
12.0	0.523548324999865	1	late	dm_task	0.523548324999865	n/a	21.0	-1.0	n/a
12.523548324999865	0.75	1	late	dm_task_post	n/a	n/a	n/a	n/a	n/a
17.5	0.5	1	late	em_task_pre	n/a	n/a	n/a	n/a	n/a
18.0	2.1378400690154997	1	late	em_task	n/a	n/a	n/a	n/a	42.0884943645007
20.1378400690155	0.75	1	late	em_task_post	n/a	n/a	n/a	n/a	n/a
28.0	1.5	2	late	stimulus	n/a	112.5	n/a	n/a	n/a
39.5	0.5	2	late	dm_task_pre	n/a	n/a	n/a	n/a	n/a
40.0	0.82857950401376	2	late	dm_task	0.82857950401376	n/a	4.0	-1.0	n/a
40.82857950401376	0.75	2	late	dm_task_post	n/a	n/a	n/a	n/a	n/a
45.5	0.5	2	late	em_task_pre	n/a	n/a	n/a	n/a	n/a
46.0	2.291888940002501	2	late	em_task	n/a	n/a	n/a	n/a	113.976790174703
48.2918889400025	0.75	2	late	em_task_post	n/a	n/a	n/a	n/a	n/a
56.0	1.5	3	late	stimulus	n/a	52.5	n/a	n/a	n/a
67.5	0.5	3	late	dm_task_pre	n/a	n/a	n/a	n/a	n/a
68.0	0.832300433015916	3	late	dm_task	0.832300433015916	n/a	4.0	1.0	n/a
68.83230043301592	0.75	3	late	dm_task_post	n/a	n/a	n/a	n/a	n/a
73.5	0.5	3	late	em_task_pre	n/a	n/a	n/a	n/a	n/a
74.0	3.6958712410124015	3	late	em_task	n/a	n/a	n/a	n/a	70.8118071309505
77.6958712410124	0.75	3	late	em_task_post	n/a	n/a	n/a	n/a	n/a
84.0	1.5	4	late	stimulus	n/a	45.0	n/a	n/a	n/a
95.5	0.5	4	late	dm_task_pre	n/a	n/a	n/a	n/a	n/a
96.0	0.563493916997686	4	late	dm_task	0.563493916997686	n/a	-21.0	1.0	n/a
96.56349391699769	0.75	4	late	dm_task_post	n/a	n/a	n/a	n/a	n/a
101.5	0.5	4	late	em_task_pre	n/a	n/a	n/a	n/a	n/a
102.0	3.0501041850074984	4	late	em_task	n/a	n/a	n/a	n/a	48.3290746163883
105.0501041850075	0.75	4	late	em_task_post	n/a	n/a	n/a	n/a	n/a
112.0	1.5	5	late	stimulus	n/a	67.5	n/a	n/a	n/a
123.5	0.5	5	late	dm_task_pre	n/a	n/a	n/a	n/a	n/a
124.0	0.858464443008415	5	late	dm_task	0.858464443008415	n/a	4.0	-1.0	n/a
124.85846444300842	0.75	5	late	dm_task_post	n/a	n/a	n/a	n/a	n/a
129.5	0.5	5	late	em_task_pre	n/a	n/a	n/a	n/a	n/a
130.0	3.0039986390038003	5	late	em_task	n/a	n/a	n/a	n/a	69.1079124006736
133.0039986390038	0.75	5	late	em_task_post	n/a	n/a	n/a	n/a	n/a
140.0	1.5	6	late	stimulus	n/a	105.0	n/a	n/a	n/a
151.5	0.5	6	late	dm_task_pre	n/a	n/a	n/a	n/a	n/a
152.0	0.594933957996545	6	late	dm_task	0.594933957996545	n/a	-4.0	1.0	n/a
152.59493395799655	0.75	6	late	dm_task_post	n/a	n/a	n/a	n/a	n/a
157.5	0.5	6	late	em_task_pre	n/a	n/a	n/a	n/a	n/a
158.0	2.031212022004201	6	late	em_task	n/a	n/a	n/a	n/a	120.042000788931
160.0312120220042	0.75	6	late	em_task_post	n/a	n/a	n/a	n/a	n/a
168.0	1.5	7	early	stimulus	n/a	0.0	n/a	n/a	n/a
173.5	0.5	7	early	dm_task_pre	n/a	n/a	n/a	n/a	n/a
174.0	0.509854127012659	7	early	dm_task	0.509854127012659	n/a	-4.0	1.0	n/a
174.50985412701266	0.75	7	early	dm_task_post	n/a	n/a	n/a	n/a	n/a
185.5	0.5	7	early	em_task_pre	n/a	n/a	n/a	n/a	n/a
186.0	2.5472080229956013	7	early	em_task	n/a	n/a	n/a	n/a	3.37729930292903
188.5472080229956	0.75	7	early	em_task_post	n/a	n/a	n/a	n/a	n/a
196.0	1.5	8	late	stimulus	n/a	157.5	n/a	n/a	n/a
207.5	0.5	8	late	dm_task_pre	n/a	n/a	n/a	n/a	n/a
208.0	0.403456847998314	8	late	dm_task	0.403456847998314	n/a	-21.0	1.0	n/a
208.4034568479983	0.75	8	late	dm_task_post	n/a	n/a	n/a	n/a	n/a
213.5	0.5	8	late	em_task_pre	n/a	n/a	n/a	n/a	n/a
214.0	1.3678955300128983	8	late	em_task	n/a	n/a	n/a	n/a	154.416328648098
215.3678955300129	0.75	8	late	em_task_post	n/a	n/a	n/a	n/a	n/a
224.0	1.5	9	late	stimulus	n/a	15.0	n/a	n/a	n/a
235.5	0.5	9	late	dm_task_pre	n/a	n/a	n/a	n/a	n/a
236.0	0.474605218012584	9	late	dm_task	0.474605218012584	n/a	0.0	1.0	n/a
236.47460521801258	0.75	9	late	dm_task_post	n/a	n/a	n/a	n/a	n/a
241.5	0.5	9	late	em_task_pre	n/a	n/a	n/a	n/a	n/a
242.0	3.9710052290175	9	late	em_task	n/a	n/a	n/a	n/a	52.7128265230392
245.9710052290175	0.75	9	late	em_task_post	n/a	n/a	n/a	n/a	n/a
252.0	1.5	10	early	stimulus	n/a	97.5	n/a	n/a	n/a
257.5	0.5	10	early	dm_task_pre	n/a	n/a	n/a	n/a	n/a
258.0	0.864534558000742	10	early	dm_task	0.864534558000742	n/a	21.0	-1.0	n/a
258.86453455800074	0.75	10	early	dm_task_post	n/a	n/a	n/a	n/a	n/a
269.5	0.5	10	early	em_task_pre	n/a	n/a	n/a	n/a	n/a
270.0	3.3753961850015983	10	early	em_task	n/a	n/a	n/a	n/a	107.528809513414
273.3753961850016	0.75	10	early	em_task_post	n/a	n/a	n/a	n/a	n/a
280.0	1.5	11	late	stimulus	n/a	165.0	n/a	n/a	n/a
291.5	0.5	11	late	dm_task_pre	n/a	n/a	n/a	n/a	n/a
292.0	0.561341532011284	11	late	dm_task	0.561341532011284	n/a	-21.0	-1.0	n/a
292.5613415320113	0.75	11	late	dm_task_post	n/a	n/a	n/a	n/a	n/a
297.5	0.5	11	late	em_task_pre	n/a	n/a	n/a	n/a	n/a
298.0	3.0296891739998983	11	late	em_task	n/a	n/a	n/a	n/a	128.378432445823
301.0296891739999	0.75	11	late	em_task_post	n/a	n/a	n/a	n/a	n/a
308.0	1.5	12	early	stimulus	n/a	22.5	n/a	n/a	n/a
313.5	0.5	12	early	dm_task_pre	n/a	n/a	n/a	n/a	n/a
314.0	0.787308125989512	12	early	dm_task	0.787308125989512	n/a	21.0	-1.0	n/a
314.7873081259895	0.75	12	early	dm_task_post	n/a	n/a	n/a	n/a	n/a
325.5	0.5	12	early	em_task_pre	n/a	n/a	n/a	n/a	n/a
326.0	4.5	12	early	em_task	n/a	n/a	n/a	n/a	n/a
330.5	0.75	12	early	em_task_post	n/a	n/a	n/a	n/a	n/a
