onset	duration	trial	trial_type	event_type	response_time	value_stimulus	value_reference	response_decision	response_estimation
0.0	1.5	1	early	stimulus	n/a	120.0	n/a	n/a	n/a
5.5	0.5	1	early	dm_task_pre	n/a	n/a	n/a	n/a	n/a
6.0	0.770903206001094	1	early	dm_task	0.770903206001094	n/a	4.0	-1.0	n/a
6.770903206001094	0.75	1	early	dm_task_post	n/a	n/a	n/a	n/a	n/a
17.5	0.5	1	early	em_task_pre	n/a	n/a	n/a	n/a	n/a
18.0	2.9151674280000996	1	early	em_task	n/a	n/a	n/a	n/a	115.695990541409
20.9151674280001	0.75	1	early	em_task_post	n/a	n/a	n/a	n/a	n/a
28.0	1.5	2	early	stimulus	n/a	52.5	n/a	n/a	n/a
33.5	0.5	2	early	dm_task_pre	n/a	n/a	n/a	n/a	n/a
34.0	0.810247265000726	2	early	dm_task	0.810247265000726	n/a	21.0	-1.0	n/a
34.810247265000726	0.75	2	early	dm_task_post	n/a	n/a	n/a	n/a	n/a
45.5	0.5	2	early	em_task_pre	n/a	n/a	n/a	n/a	n/a
46.0	2.9382715499996017	2	early	em_task	n/a	n/a	n/a	n/a	58.8859261460803
48.9382715499996	0.75	2	early	em_task_post	n/a	n/a	n/a	n/a	n/a
56.0	1.5	3	early	stimulus	n/a	67.5	n/a	n/a	n/a
61.5	0.5	3	early	dm_task_pre	n/a	n/a	n/a	n/a	n/a
62.0	0.683120527999563	3	early	dm_task	0.683120527999563	n/a	0.0	-1.0	n/a
62.68312052799956	0.75	3	early	dm_task_post	n/a	n/a	n/a	n/a	n/a
73.5	0.5	3	early	em_task_pre	n/a	n/a	n/a	n/a	n/a
74.0	3.0110611260006017	3	early	em_task	n/a	n/a	n/a	n/a	68.0630792986085
77.0110611260006	0.75	3	early	em_task_post	n/a	n/a	n/a	n/a	n/a
84.0	1.5	4	late	stimulus	n/a	127.5	n/a	n/a	n/a
95.5	0.5	4	late	dm_task_pre	n/a	n/a	n/a	n/a	n/a
96.0	0.704489506000755	4	late	dm_task	0.704489506000755	n/a	0.0	-1.0	n/a
96.70448950600075	0.75	4	late	dm_task_post	n/a	n/a	n/a	n/a	n/a
101.5	0.5	4	late	em_task_pre	n/a	n/a	n/a	n/a	n/a
102.0	2.7179758910005987	4	late	em_task	n/a	n/a	n/a	n/a	130.802627321256
104.7179758910006	0.75	4	late	em_task_post	n/a	n/a	n/a	n/a	n/a
112.0	1.5	5	late	stimulus	n/a	157.5	n/a	n/a	n/a
123.5	0.5	5	late	dm_task_pre	n/a	n/a	n/a	n/a	n/a
124.0	1.22690953399979	5	late	dm_task	1.22690953399979	n/a	-21.0	1.0	n/a
125.22690953399979	0.75	5	late	dm_task_post	n/a	n/a	n/a	n/a	n/a
129.5	0.5	5	late	em_task_pre	n/a	n/a	n/a	n/a	n/a
130.0	2.5081202490001004	5	late	em_task	n/a	n/a	n/a	n/a	150.30254076631
132.50812024900011	0.75	5	late	em_task_post	n/a	n/a	n/a	n/a	n/a
140.0	1.5	6	late	stimulus	n/a	112.5	n/a	n/a	n/a
151.5	0.5	6	late	dm_task_pre	n/a	n/a	n/a	n/a	n/a
152.0	0.900252456000089	6	late	dm_task	0.900252456000089	n/a	21.0	-1.0	n/a
152.9002524560001	0.75	6	late	dm_task_post	n/a	n/a	n/a	n/a	n/a
157.5	0.5	6	late	em_task_pre	n/a	n/a	n/a	n/a	n/a
158.0	2.9984188070011015	6	late	em_task	n/a	n/a	n/a	n/a	121.664291530939
160.9984188070011	0.75	6	late	em_task_post	n/a	n/a	n/a	n/a	n/a
168.0	1.5	7	early	stimulus	n/a	97.5	n/a	n/a	n/a
173.5	0.5	7	early	dm_task_pre	n/a	n/a	n/a	n/a	n/a
174.0	0.509261629000321	7	early	dm_task	0.509261629000321	n/a	0.0	1.0	n/a
174.50926162900032	0.75	7	early	dm_task_post	n/a	n/a	n/a	n/a	n/a
185.5	0.5	7	early	em_task_pre	n/a	n/a	n/a	n/a	n/a
186.0	3.120308874000301	7	early	em_task	n/a	n/a	n/a	n/a	111.421364837297
189.1203088740003	0.75	7	early	em_task_post	n/a	n/a	n/a	n/a	n/a
196.0	1.5	8	early	stimulus	n/a	165.0	n/a	n/a	n/a
201.5	0.5	8	early	dm_task_pre	n/a	n/a	n/a	n/a	n/a
202.0	0.51531654000064	8	early	dm_task	0.51531654000064	n/a	-4.0	-1.0	n/a
202.51531654000064	0.75	8	early	dm_task_post	n/a	n/a	n/a	n/a	n/a
213.5	0.5	8	early	em_task_pre	n/a	n/a	n/a	n/a	n/a
214.0	3.2270059530000985	8	early	em_task	n/a	n/a	n/a	n/a	146.411232249517
217.2270059530001	0.75	8	early	em_task_post	n/a	n/a	n/a	n/a	n/a
224.0	1.5	9	early	stimulus	n/a	82.5	n/a	n/a	n/a
229.5	0.5	9	early	dm_task_pre	n/a	n/a	n/a	n/a	n/a
230.0	0.654830458001015	9	early	dm_task	0.654830458001015	n/a	0.0	-1.0	n/a
230.65483045800102	0.75	9	early	dm_task_post	n/a	n/a	n/a	n/a	n/a
241.5	0.5	9	early	em_task_pre	n/a	n/a	n/a	n/a	n/a
242.0	2.2168977620004	9	early	em_task	n/a	n/a	n/a	n/a	73.4378606556227
244.2168977620004	0.75	9	early	em_task_post	n/a	n/a	n/a	n/a	n/a
252.0	1.5	10	early	stimulus	n/a	0.0	n/a	n/a	n/a
257.5	0.5	10	early	dm_task_pre	n/a	n/a	n/a	n/a	n/a
258.0	0.778891515999931	10	early	dm_task	0.778891515999931	n/a	-21.0	1.0	n/a
258.77889151599993	0.75	10	early	dm_task_post	n/a	n/a	n/a	n/a	n/a
269.5	0.5	10	early	em_task_pre	n/a	n/a	n/a	n/a	n/a
270.0	2.9900134130003018	10	early	em_task	n/a	n/a	n/a	n/a	172.850847771055
272.9900134130003	0.75	10	early	em_task_post	n/a	n/a	n/a	n/a	n/a
280.0	1.5	11	late	stimulus	n/a	172.5	n/a	n/a	n/a
291.5	0.5	11	late	dm_task_pre	n/a	n/a	n/a	n/a	n/a
292.0	0.515992148000805	11	late	dm_task	0.515992148000805	n/a	21.0	-1.0	n/a
292.5159921480008	0.75	11	late	dm_task_post	n/a	n/a	n/a	n/a	n/a
297.5	0.5	11	late	em_task_pre	n/a	n/a	n/a	n/a	n/a
298.0	3.4639463599996994	11	late	em_task	n/a	n/a	n/a	n/a	166.333246278069
301.4639463599997	0.75	11	late	em_task_post	n/a	n/a	n/a	n/a	n/a
308.0	1.5	12	early	stimulus	n/a	15.0	n/a	n/a	n/a
313.5	0.5	12	early	dm_task_pre	n/a	n/a	n/a	n/a	n/a
314.0	0.474191561001135	12	early	dm_task	0.474191561001135	n/a	21.0	-1.0	n/a
314.47419156100113	0.75	12	early	dm_task_post	n/a	n/a	n/a	n/a	n/a
325.5	0.5	12	early	em_task_pre	n/a	n/a	n/a	n/a	n/a
326.0	3.1027661229999985	12	early	em_task	n/a	n/a	n/a	n/a	16.6889037710095
329.102766123	0.75	12	early	em_task_post	n/a	n/a	n/a	n/a	n/a
