onset	duration	trial	trial_type	event_type	response_time	value_stimulus	value_reference	response_decision	response_estimation
0.0	1.5	1	early	stimulus	n/a	120.0	n/a	n/a	n/a
5.5	0.5	1	early	dm_task_pre	n/a	n/a	n/a	n/a	n/a
6.0	0.91195626300032	1	early	dm_task	0.91195626300032	n/a	-4.0	-1.0	n/a
6.91195626300032	0.75	1	early	dm_task_post	n/a	n/a	n/a	n/a	n/a
17.5	0.5	1	early	em_task_pre	n/a	n/a	n/a	n/a	n/a
18.0	2.3071046099976016	1	early	em_task	n/a	n/a	n/a	n/a	123.628840981129
20.3071046099976	0.75	1	early	em_task_post	n/a	n/a	n/a	n/a	n/a
28.0	1.5	2	late	stimulus	n/a	82.5	n/a	n/a	n/a
39.5	0.5	2	late	dm_task_pre	n/a	n/a	n/a	n/a	n/a
40.0	0.799873550000484	2	late	dm_task	0.799873550000484	n/a	4.0	-1.0	n/a
40.799873550000484	0.75	2	late	dm_task_post	n/a	n/a	n/a	n/a	n/a
45.5	0.5	2	late	em_task_pre	n/a	n/a	n/a	n/a	n/a
46.0	2.6136393769992985	2	late	em_task	n/a	n/a	n/a	n/a	69.7656224808364
48.6136393769993	0.75	2	late	em_task_post	n/a	n/a	n/a	n/a	n/a
56.0	1.5	3	early	stimulus	n/a	142.5	n/a	n/a	n/a
61.5	0.5	3	early	dm_task_pre	n/a	n/a	n/a	n/a	n/a
62.0	0.69102569199822	3	early	dm_task	0.69102569199822	n/a	21.0	-1.0	n/a
62.69102569199822	0.75	3	early	dm_task_post	n/a	n/a	n/a	n/a	n/a
73.5	0.5	3	early	em_task_pre	n/a	n/a	n/a	n/a	n/a
74.0	2.4862371089984983	3	early	em_task	n/a	n/a	n/a	n/a	152.438484692792
76.4862371089985	0.75	3	early	em_task_post	n/a	n/a	n/a	n/a	n/a
84.0	1.5	4	late	stimulus	n/a	37.5	n/a	n/a	n/a
95.5	0.5	4	late	dm_task_pre	n/a	n/a	n/a	n/a	n/a
96.0	0.812622515000839	4	late	dm_task	0.812622515000839	n/a	4.0	-1.0	n/a
96.81262251500084	0.75	4	late	dm_task_post	n/a	n/a	n/a	n/a	n/a
101.5	0.5	4	late	em_task_pre	n/a	n/a	n/a	n/a	n/a
102.0	2.7264781269986997	4	late	em_task	n/a	n/a	n/a	n/a	28.1953605990872
104.7264781269987	0.75	4	late	em_task_post	n/a	n/a	n/a	n/a	n/a
112.0	1.5	5	late	stimulus	n/a	15.0	n/a	n/a	n/a
123.5	0.5	5	late	dm_task_pre	n/a	n/a	n/a	n/a	n/a
124.0	0.618304875999456	5	late	dm_task	0.618304875999456	n/a	-21.0	1.0	n/a
124.61830487599946	0.75	5	late	dm_task_post	n/a	n/a	n/a	n/a	n/a
129.5	0.5	5	late	em_task_pre	n/a	n/a	n/a	n/a	n/a
130.0	2.848654450001	5	late	em_task	n/a	n/a	n/a	n/a	17.4293506686904
132.848654450001	0.75	5	late	em_task_post	n/a	n/a	n/a	n/a	n/a
140.0	1.5	6	late	stimulus	n/a	157.5	n/a	n/a	n/a
151.5	0.5	6	late	dm_task_pre	n/a	n/a	n/a	n/a	n/a
152.0	0.591560401000606	6	late	dm_task	0.591560401000606	n/a	-21.0	1.0	n/a
152.5915604010006	0.75	6	late	dm_task_post	n/a	n/a	n/a	n/a	n/a
157.5	0.5	6	late	em_task_pre	n/a	n/a	n/a	n/a	n/a
158.0	1.9403119060007015	6	late	em_task	n/a	n/a	n/a	n/a	155.205477545959
159.94031190600072	0.75	6	late	em_task_post	n/a	n/a	n/a	n/a	n/a
168.0	1.5	7	late	stimulus	n/a	7.5	n/a	n/a	n/a
179.5	0.5	7	late	dm_task_pre	n/a	n/a	n/a	n/a	n/a
180.0	0.648316994000197	7	late	dm_task	0.648316994000197	n/a	0.0	1.0	n/a
180.6483169940002	0.75	7	late	dm_task_post	n/a	n/a	n/a	n/a	n/a
185.5	0.5	7	late	em_task_pre	n/a	n/a	n/a	n/a	n/a
186.0	1.5460394510010005	7	late	em_task	n/a	n/a	n/a	n/a	16.8424179847866
187.546039451001	0.75	7	late	em_task_post	n/a	n/a	n/a	n/a	n/a
196.0	1.5	8	early	stimulus	n/a	165.0	n/a	n/a	n/a
201.5	0.5	8	early	dm_task_pre	n/a	n/a	n/a	n/a	n/a
202.0	0.723694455999066	8	early	dm_task	0.723694455999066	n/a	4.0	-1.0	n/a
202.72369445599907	0.75	8	early	dm_task_post	n/a	n/a	n/a	n/a	n/a
213.5	0.5	8	early	em_task_pre	n/a	n/a	n/a	n/a	n/a
214.0	3.3851744959975	8	early	em_task	n/a	n/a	n/a	n/a	162.824439455652
217.3851744959975	0.75	8	early	em_task_post	n/a	n/a	n/a	n/a	n/a
224.0	1.5	9	early	stimulus	n/a	135.0	n/a	n/a	n/a
229.5	0.5	9	early	dm_task_pre	n/a	n/a	n/a	n/a	n/a
230.0	0.697365347998129	9	early	dm_task	0.697365347998129	n/a	0.0	1.0	n/a
230.69736534799813	0.75	9	early	dm_task_post	n/a	n/a	n/a	n/a	n/a
241.5	0.5	9	early	em_task_pre	n/a	n/a	n/a	n/a	n/a
242.0	2.143251691999499	9	early	em_task	n/a	n/a	n/a	n/a	138.056588260457
244.1432516919995	0.75	9	early	em_task_post	n/a	n/a	n/a	n/a	n/a
252.0	1.5	10	early	stimulus	n/a	97.5	n/a	n/a	n/a
257.5	0.5	10	early	dm_task_pre	n/a	n/a	n/a	n/a	n/a
258.0	0.471132737999142	10	early	dm_task	0.471132737999142	n/a	-4.0	1.0	n/a
258.47113273799914	0.75	10	early	dm_task_post	n/a	n/a	n/a	n/a	n/a
269.5	0.5	10	early	em_task_pre	n/a	n/a	n/a	n/a	n/a
270.0	1.3324527049989996	10	early	em_task	n/a	n/a	n/a	n/a	107.11767572617
271.332452704999	0.75	10	early	em_task_post	n/a	n/a	n/a	n/a	n/a
280.0	1.5	11	early	stimulus	n/a	22.5	n/a	n/a	n/a
285.5	0.5	11	early	dm_task_pre	n/a	n/a	n/a	n/a	n/a
286.0	0.81002603899833	11	early	dm_task	0.81002603899833	n/a	4.0	1.0	n/a
286.81002603899833	0.75	11	early	dm_task_post	n/a	n/a	n/a	n/a	n/a
297.5	0.5	11	early	em_task_pre	n/a	n/a	n/a	n/a	n/a
298.0	1.9717107229989992	11	early	em_task	n/a	n/a	n/a	n/a	19.8512123216303
299.971710722999	0.75	11	early	em_task_post	n/a	n/a	n/a	n/a	n/a
308.0	1.5	12	early	stimulus	n/a	127.5	n/a	n/a	n/a
313.5	0.5	12	early	dm_task_pre	n/a	n/a	n/a	n/a	n/a
314.0	0.600418106998404	12	early	dm_task	0.600418106998404	n/a	21.0	-1.0	n/a
314.6004181069984	0.75	12	early	dm_task_post	n/a	n/a	n/a	n/a	n/a
325.5	0.5	12	early	em_task_pre	n/a	n/a	n/a	n/a	n/a
326.0	3.6435473130005	12	early	em_task	n/a	n/a	n/a	n/a	120.198765871642
329.6435473130005	0.75	12	early	em_task_post	n/a	n/a	n/a	n/a	n/a
