onset	duration	trial	trial_type	event_type	response_time	value_stimulus	value_reference	response_decision	response_estimation
0.0	1.5	1	early	stimulus	n/a	135.0	n/a	n/a	n/a
5.5	0.5	1	early	dm_task_pre	n/a	n/a	n/a	n/a	n/a
6.0	0.743316758000219	1	early	dm_task	0.743316758000219	n/a	21.0	-1.0	n/a
6.743316758000219	0.75	1	early	dm_task_post	n/a	n/a	n/a	n/a	n/a
17.5	0.5	1	early	em_task_pre	n/a	n/a	n/a	n/a	n/a
18.0	1.9226996070001015	1	early	em_task	n/a	n/a	n/a	n/a	139.237736826526
19.9226996070001	0.75	1	early	em_task_post	n/a	n/a	n/a	n/a	n/a
28.0	1.5	2	early	stimulus	n/a	45.0	n/a	n/a	n/a
33.5	0.5	2	early	dm_task_pre	n/a	n/a	n/a	n/a	n/a
34.0	0.683258582000235	2	early	dm_task	0.683258582000235	n/a	-21.0	1.0	n/a
34.683258582000235	0.75	2	early	dm_task_post	n/a	n/a	n/a	n/a	n/a
45.5	0.5	2	early	em_task_pre	n/a	n/a	n/a	n/a	n/a
46.0	2.7448296089997015	2	early	em_task	n/a	n/a	n/a	n/a	45.7303838881253
48.7448296089997	0.75	2	early	em_task_post	n/a	n/a	n/a	n/a	n/a
56.0	1.5	3	early	stimulus	n/a	15.0	n/a	n/a	n/a
61.5	0.5	3	early	dm_task_pre	n/a	n/a	n/a	n/a	n/a
62.0	1.47264869500032	3	early	dm_task	1.47264869500032	n/a	4.0	1.0	n/a
63.472648695000316	0.75	3	early	dm_task_post	n/a	n/a	n/a	n/a	n/a
73.5	0.5	3	early	em_task_pre	n/a	n/a	n/a	n/a	n/a
74.0	2.2682379640000008	3	early	em_task	n/a	n/a	n/a	n/a	36.242865541409
76.26823796400001	0.75	3	early	em_task_post	n/a	n/a	n/a	n/a	n/a
84.0	1.5	4	late	stimulus	n/a	120.0	n/a	n/a	n/a
95.5	0.5	4	late	dm_task_pre	n/a	n/a	n/a	n/a	n/a
96.0	0.977604845999849	4	late	dm_task	0.977604845999849	n/a	-4.0	1.0	n/a
96.97760484599985	0.75	4	late	dm_task_post	n/a	n/a	n/a	n/a	n/a
101.5	0.5	4	late	em_task_pre	n/a	n/a	n/a	n/a	n/a
102.0	2.3916075939997015	4	late	em_task	n/a	n/a	n/a	n/a	125.68280114608
104.39160759399971	0.75	4	late	em_task_post	n/a	n/a	n/a	n/a	n/a
112.0	1.5	5	late	stimulus	n/a	97.5	n/a	n/a	n/a
123.5	0.5	5	late	dm_task_pre	n/a	n/a	n/a	n/a	n/a
124.0	0.850374544999795	5	late	dm_task	0.850374544999795	n/a	21.0	-1.0	n/a
124.8503745449998	0.75	5	late	dm_task_post	n/a	n/a	n/a	n/a	n/a
129.5	0.5	5	late	em_task_pre	n/a	n/a	n/a	n/a	n/a
130.0	2.848088242999399	5	late	em_task	n/a	n/a	n/a	n/a	104.625579298608
132.8480882429994	0.75	5	late	em_task_post	n/a	n/a	n/a	n/a	n/a
140.0	1.5	6	early	stimulus	n/a	30.0	n/a	n/a	n/a
145.5	0.5	6	early	dm_task_pre	n/a	n/a	n/a	n/a	n/a
146.0	0.561392980000164	6	early	dm_task	0.561392980000164	n/a	21.0	-1.0	n/a
146.56139298000016	0.75	6	early	dm_task_post	n/a	n/a	n/a	n/a	n/a
157.5	0.5	6	early	em_task_pre	n/a	n/a	n/a	n/a	n/a
158.0	3.370582362000299	6	early	em_task	n/a	n/a	n/a	n/a	33.7713773212557
161.3705823620003	0.75	6	early	em_task_post	n/a	n/a	n/a	n/a	n/a
168.0	1.5	7	late	stimulus	n/a	60.0	n/a	n/a	n/a
179.5	0.5	7	late	dm_task_pre	n/a	n/a	n/a	n/a	n/a
180.0	0.680097997999837	7	late	dm_task	0.680097997999837	n/a	21.0	-1.0	n/a
180.68009799799984	0.75	7	late	dm_task_post	n/a	n/a	n/a	n/a	n/a
185.5	0.5	7	late	em_task_pre	n/a	n/a	n/a	n/a	n/a
186.0	3.6937691200000984	7	late	em_task	n/a	n/a	n/a	n/a	55.3806657663098
189.6937691200001	0.75	7	late	em_task_post	n/a	n/a	n/a	n/a	n/a
196.0	1.5	8	late	stimulus	n/a	82.5	n/a	n/a	n/a
207.5	0.5	8	late	dm_task_pre	n/a	n/a	n/a	n/a	n/a
208.0	0.686786315000063	8	late	dm_task	0.686786315000063	n/a	-4.0	-1.0	n/a
208.68678631500006	0.75	8	late	dm_task_post	n/a	n/a	n/a	n/a	n/a
213.5	0.5	8	late	em_task_pre	n/a	n/a	n/a	n/a	n/a
214.0	3.7857979250001996	8	late	em_task	n/a	n/a	n/a	n/a	61.8986665309388
217.7857979250002	0.75	8	late	em_task_post	n/a	n/a	n/a	n/a	n/a
224.0	1.5	9	early	stimulus	n/a	112.5	n/a	n/a	n/a
229.5	0.5	9	early	dm_task_pre	n/a	n/a	n/a	n/a	n/a
230.0	0.544532711000102	9	early	dm_task	0.544532711000102	n/a	-4.0	1.0	n/a
230.5445327110001	0.75	9	early	dm_task_post	n/a	n/a	n/a	n/a	n/a
241.5	0.5	9	early	em_task_pre	n/a	n/a	n/a	n/a	n/a
242.0	2.9078336729998995	9	early	em_task	n/a	n/a	n/a	n/a	130.405739837297
244.9078336729999	0.75	9	early	em_task_post	n/a	n/a	n/a	n/a	n/a
252.0	1.5	10	late	stimulus	n/a	157.5	n/a	n/a	n/a
263.5	0.5	10	late	dm_task_pre	n/a	n/a	n/a	n/a	n/a
264.0	1.16633062999972	10	late	dm_task	1.16633062999972	n/a	4.0	1.0	n/a
265.1663306299997	0.75	10	late	dm_task_post	n/a	n/a	n/a	n/a	n/a
269.5	0.5	10	late	em_task_pre	n/a	n/a	n/a	n/a	n/a
270.0	2.2633811030000004	10	late	em_task	n/a	n/a	n/a	n/a	156.254982249517
272.26338110300003	0.75	10	late	em_task_post	n/a	n/a	n/a	n/a	n/a
280.0	1.5	11	late	stimulus	n/a	22.5	n/a	n/a	n/a
291.5	0.5	11	late	dm_task_pre	n/a	n/a	n/a	n/a	n/a
292.0	0.939814434000255	11	late	dm_task	0.939814434000255	n/a	0.0	1.0	n/a
292.93981443400025	0.75	11	late	dm_task_post	n/a	n/a	n/a	n/a	n/a
297.5	0.5	11	late	em_task_pre	n/a	n/a	n/a	n/a	n/a
298.0	3.5868629030000996	11	late	em_task	n/a	n/a	n/a	n/a	28.4378606556227
301.5868629030001	0.75	11	late	em_task_post	n/a	n/a	n/a	n/a	n/a
308.0	1.5	12	late	stimulus	n/a	150.0	n/a	n/a	n/a
319.5	0.5	12	late	dm_task_pre	n/a	n/a	n/a	n/a	n/a
320.0	0.664631882000322	12	late	dm_task	0.664631882000322	n/a	21.0	-1.0	n/a
320.6646318820003	0.75	12	late	dm_task_post	n/a	n/a	n/a	n/a	n/a
325.5	0.5	12	late	em_task_pre	n/a	n/a	n/a	n/a	n/a
326.0	3.0271084400000987	12	late	em_task	n/a	n/a	n/a	n/a	158.085222771055
329.0271084400001	0.75	12	late	em_task_post	n/a	n/a	n/a	n/a	n/a
