onset	duration	trial	trial_type	event_type	response_time	value_stimulus	value_reference	response_decision	response_estimation
0.0	1.5	1	late	stimulus	n/a	135.0	n/a	n/a	n/a
11.5	0.5	1	late	dm_task_pre	n/a	n/a	n/a	n/a	n/a
12.0	1.46706797100023	1	late	dm_task	1.46706797100023	n/a	-21.0	1.0	n/a
13.46706797100023	0.75	1	late	dm_task_post	n/a	n/a	n/a	n/a	n/a
17.5	0.5	1	late	em_task_pre	n/a	n/a	n/a	n/a	n/a
18.0	1.2637810720002989	1	late	em_task	n/a	n/a	n/a	n/a	131.452653030196
19.2637810720003	0.75	1	late	em_task_post	n/a	n/a	n/a	n/a	n/a
28.0	1.5	2	early	stimulus	n/a	120.0	n/a	n/a	n/a
33.5	0.5	2	early	dm_task_pre	n/a	n/a	n/a	n/a	n/a
34.0	1.09338552700001	2	early	dm_task	1.09338552700001	n/a	21.0	-1.0	n/a
35.09338552700001	0.75	2	early	dm_task_post	n/a	n/a	n/a	n/a	n/a
45.5	0.5	2	early	em_task_pre	n/a	n/a	n/a	n/a	n/a
46.0	2.4217082120003006	2	early	em_task	n/a	n/a	n/a	n/a	127.122361987766
48.4217082120003	0.75	2	early	em_task_post	n/a	n/a	n/a	n/a	n/a
56.0	1.5	3	late	stimulus	n/a	30.0	n/a	n/a	n/a
67.5	0.5	3	late	dm_task_pre	n/a	n/a	n/a	n/a	n/a
68.0	0.766554239000016	3	late	dm_task	0.766554239000016	n/a	4.0	-1.0	n/a
68.76655423900002	0.75	3	late	dm_task_post	n/a	n/a	n/a	n/a	n/a
73.5	0.5	3	late	em_task_pre	n/a	n/a	n/a	n/a	n/a
74.0	2.862870733000399	3	late	em_task	n/a	n/a	n/a	n/a	29.7753745441837
76.86287073300039	0.75	3	late	em_task_post	n/a	n/a	n/a	n/a	n/a
84.0	1.5	4	early	stimulus	n/a	60.0	n/a	n/a	n/a
89.5	0.5	4	early	dm_task_pre	n/a	n/a	n/a	n/a	n/a
90.0	1.00928629800001	4	early	dm_task	1.00928629800001	n/a	21.0	-1.0	n/a
91.009286298	0.75	4	early	dm_task_post	n/a	n/a	n/a	n/a	n/a
101.5	0.5	4	early	em_task_pre	n/a	n/a	n/a	n/a	n/a
102.0	1.7712520600003003	4	early	em_task	n/a	n/a	n/a	n/a	54.981085420017
103.77125206000031	0.75	4	early	em_task_post	n/a	n/a	n/a	n/a	n/a
112.0	1.5	5	early	stimulus	n/a	97.5	n/a	n/a	n/a
117.5	0.5	5	early	dm_task_pre	n/a	n/a	n/a	n/a	n/a
118.0	0.601153987000089	5	early	dm_task	0.601153987000089	n/a	-4.0	1.0	n/a
118.60115398700009	0.75	5	early	dm_task_post	n/a	n/a	n/a	n/a	n/a
129.5	0.5	5	early	em_task_pre	n/a	n/a	n/a	n/a	n/a
130.0	2.1788360200003005	5	early	em_task	n/a	n/a	n/a	n/a	116.684624954638
132.1788360200003	0.75	5	early	em_task_post	n/a	n/a	n/a	n/a	n/a
140.0	1.5	6	late	stimulus	n/a	150.0	n/a	n/a	n/a
151.5	0.5	6	late	dm_task_pre	n/a	n/a	n/a	n/a	n/a
152.0	0.547737243000029	6	late	dm_task	0.547737243000029	n/a	21.0	-1.0	n/a
152.54773724300003	0.75	6	late	dm_task_post	n/a	n/a	n/a	n/a	n/a
157.5	0.5	6	late	em_task_pre	n/a	n/a	n/a	n/a	n/a
158.0	2.502949755000401	6	late	em_task	n/a	n/a	n/a	n/a	147.016371897346
160.5029497550004	0.75	6	late	em_task_post	n/a	n/a	n/a	n/a	n/a
168.0	1.5	7	early	stimulus	n/a	172.5	n/a	n/a	n/a
173.5	0.5	7	early	dm_task_pre	n/a	n/a	n/a	n/a	n/a
174.0	1.44710422200023	7	early	dm_task	1.44710422200023	n/a	-21.0	-1.0	n/a
175.44710422200023	0.75	7	early	dm_task_post	n/a	n/a	n/a	n/a	n/a
185.5	0.5	7	early	em_task_pre	n/a	n/a	n/a	n/a	n/a
186.0	2.711254617000101	7	early	em_task	n/a	n/a	n/a	n/a	133.552621855249
188.7112546170001	0.75	7	early	em_task_post	n/a	n/a	n/a	n/a	n/a
196.0	1.5	8	early	stimulus	n/a	157.5	n/a	n/a	n/a
201.5	0.5	8	early	dm_task_pre	n/a	n/a	n/a	n/a	n/a
202.0	1.0412315790004	8	early	dm_task	1.0412315790004	n/a	0.0	-1.0	n/a
203.0412315790004	0.75	8	early	dm_task_post	n/a	n/a	n/a	n/a	n/a
213.5	0.5	8	early	em_task_pre	n/a	n/a	n/a	n/a	n/a
214.0	3.1187605830000003	8	early	em_task	n/a	n/a	n/a	n/a	142.7412025096
217.118760583	0.75	8	early	em_task_post	n/a	n/a	n/a	n/a	n/a
224.0	1.5	9	late	stimulus	n/a	7.5	n/a	n/a	n/a
235.5	0.5	9	late	dm_task_pre	n/a	n/a	n/a	n/a	n/a
236.0	1.01383212500014	9	late	dm_task	1.01383212500014	n/a	-21.0	1.0	n/a
237.01383212500014	0.75	9	late	dm_task_post	n/a	n/a	n/a	n/a	n/a
241.5	0.5	9	late	em_task_pre	n/a	n/a	n/a	n/a	n/a
242.0	2.0739899230002017	9	late	em_task	n/a	n/a	n/a	n/a	20.0794653219417
244.0739899230002	0.75	9	late	em_task_post	n/a	n/a	n/a	n/a	n/a
252.0	1.5	10	late	stimulus	n/a	165.0	n/a	n/a	n/a
263.5	0.5	10	late	dm_task_pre	n/a	n/a	n/a	n/a	n/a
264.0	1.42146920900041	10	late	dm_task	1.42146920900041	n/a	-21.0	1.0	n/a
265.4214692090004	0.75	10	late	dm_task_post	n/a	n/a	n/a	n/a	n/a
269.5	0.5	10	late	em_task_pre	n/a	n/a	n/a	n/a	n/a
270.0	0.9853184800004016	10	late	em_task	n/a	n/a	n/a	n/a	151.82266492425
270.9853184800004	0.75	10	late	em_task_post	n/a	n/a	n/a	n/a	n/a
280.0	1.5	11	early	stimulus	n/a	82.5	n/a	n/a	n/a
285.5	0.5	11	early	dm_task_pre	n/a	n/a	n/a	n/a	n/a
286.0	0.814930612000353	11	early	dm_task	0.814930612000353	n/a	0.0	-1.0	n/a
286.81493061200035	0.75	11	early	dm_task_post	n/a	n/a	n/a	n/a	n/a
297.5	0.5	11	early	em_task_pre	n/a	n/a	n/a	n/a	n/a
298.0	3.425699852000001	11	early	em_task	n/a	n/a	n/a	n/a	80.3203090754556
301.425699852	0.75	11	early	em_task_post	n/a	n/a	n/a	n/a	n/a
308.0	1.5	12	early	stimulus	n/a	45.0	n/a	n/a	n/a
313.5	0.5	12	early	dm_task_pre	n/a	n/a	n/a	n/a	n/a
314.0	0.953565750000053	12	early	dm_task	0.953565750000053	n/a	-4.0	-1.0	n/a
314.95356575000005	0.75	12	early	dm_task_post	n/a	n/a	n/a	n/a	n/a
325.5	0.5	12	early	em_task_pre	n/a	n/a	n/a	n/a	n/a
326.0	1.8338003710000983	12	early	em_task	n/a	n/a	n/a	n/a	19.7653320736332
327.8338003710001	0.75	12	early	em_task_post	n/a	n/a	n/a	n/a	n/a
