onset	duration	trial	trial_type	event_type	response_time	value_stimulus	value_reference	response_decision	response_estimation
0.0	1.5	1	late	stimulus	n/a	157.5	n/a	n/a	n/a
11.5	0.5	1	late	dm_task_pre	n/a	n/a	n/a	n/a	n/a
12.0	1.25722670099998	1	late	dm_task	1.25722670099998	n/a	-4.0	-1.0	n/a
13.25722670099998	0.75	1	late	dm_task_post	n/a	n/a	n/a	n/a	n/a
17.5	0.5	1	late	em_task_pre	n/a	n/a	n/a	n/a	n/a
18.0	3.2871809700000014	1	late	em_task	n/a	n/a	n/a	n/a	138.979608152813
21.28718097	0.75	1	late	em_task_post	n/a	n/a	n/a	n/a	n/a
28.0	1.5	2	late	stimulus	n/a	0.0	n/a	n/a	n/a
39.5	0.5	2	late	dm_task_pre	n/a	n/a	n/a	n/a	n/a
40.0	1.49852160599997	2	late	dm_task	1.49852160599997	n/a	0.0	1.0	n/a
41.49852160599997	0.75	2	late	dm_task_post	n/a	n/a	n/a	n/a	n/a
45.5	0.5	2	late	em_task_pre	n/a	n/a	n/a	n/a	n/a
46.0	3.7450432629999995	2	late	em_task	n/a	n/a	n/a	n/a	171.131501953217
49.745043263	0.75	2	late	em_task_post	n/a	n/a	n/a	n/a	n/a
56.0	1.5	3	late	stimulus	n/a	22.5	n/a	n/a	n/a
67.5	0.5	3	late	dm_task_pre	n/a	n/a	n/a	n/a	n/a
68.0	1.5	3	late	dm_task	1.83731895100001	n/a	0.0	1.0	n/a
69.5	0.75	3	late	dm_task_post	n/a	n/a	n/a	n/a	n/a
73.5	0.5	3	late	em_task_pre	n/a	n/a	n/a	n/a	n/a
74.0	2.452889558999999	3	late	em_task	n/a	n/a	n/a	n/a	26.0408686145072
76.452889559	0.75	3	late	em_task_post	n/a	n/a	n/a	n/a	n/a
84.0	1.5	4	late	stimulus	n/a	90.0	n/a	n/a	n/a
95.5	0.5	4	late	dm_task_pre	n/a	n/a	n/a	n/a	n/a
96.0	1.18116415299997	4	late	dm_task	1.18116415299997	n/a	0.0	-1.0	n/a
97.18116415299997	0.75	4	late	dm_task_post	n/a	n/a	n/a	n/a	n/a
101.5	0.5	4	late	em_task_pre	n/a	n/a	n/a	n/a	n/a
102.0	3.4941295190000012	4	late	em_task	n/a	n/a	n/a	n/a	99.2154041581423
105.494129519	0.75	4	late	em_task_post	n/a	n/a	n/a	n/a	n/a
112.0	1.5	5	late	stimulus	n/a	45.0	n/a	n/a	n/a
123.5	0.5	5	late	dm_task_pre	n/a	n/a	n/a	n/a	n/a
124.0	0.506272757000005	5	late	dm_task	0.506272757000005	n/a	-21.0	1.0	n/a
124.506272757	0.75	5	late	dm_task_post	n/a	n/a	n/a	n/a	n/a
129.5	0.5	5	late	em_task_pre	n/a	n/a	n/a	n/a	n/a
130.0	3.3186223430000013	5	late	em_task	n/a	n/a	n/a	n/a	59.3986533407432
133.31862234300002	0.75	5	late	em_task_post	n/a	n/a	n/a	n/a	n/a
140.0	1.5	6	early	stimulus	n/a	7.5	n/a	n/a	n/a
145.5	0.5	6	early	dm_task_pre	n/a	n/a	n/a	n/a	n/a
146.0	1.19854917000001	6	early	dm_task	1.19854917000001	n/a	4.0	1.0	n/a
147.19854917	0.75	6	early	dm_task_post	n/a	n/a	n/a	n/a	n/a
157.5	0.5	6	early	em_task_pre	n/a	n/a	n/a	n/a	n/a
158.0	3.3597172969999995	6	early	em_task	n/a	n/a	n/a	n/a	19.2729996599575
161.359717297	0.75	6	early	em_task_post	n/a	n/a	n/a	n/a	n/a
168.0	1.5	7	late	stimulus	n/a	67.5	n/a	n/a	n/a
179.5	0.5	7	late	dm_task_pre	n/a	n/a	n/a	n/a	n/a
180.0	1.07144426400001	7	late	dm_task	1.07144426400001	n/a	0.0	1.0	n/a
181.071444264	0.75	7	late	dm_task_post	n/a	n/a	n/a	n/a	n/a
185.5	0.5	7	late	em_task_pre	n/a	n/a	n/a	n/a	n/a
186.0	2.001856645	7	late	em_task	n/a	n/a	n/a	n/a	78.5453432007909
188.001856645	0.75	7	late	em_task_post	n/a	n/a	n/a	n/a	n/a
196.0	1.5	8	early	stimulus	n/a	60.0	n/a	n/a	n/a
201.5	0.5	8	early	dm_task_pre	n/a	n/a	n/a	n/a	n/a
202.0	0.948335477999962	8	early	dm_task	0.948335477999962	n/a	4.0	1.0	n/a
202.94833547799996	0.75	8	early	dm_task_post	n/a	n/a	n/a	n/a	n/a
213.5	0.5	8	early	em_task_pre	n/a	n/a	n/a	n/a	n/a
214.0	3.2921385180000016	8	early	em_task	n/a	n/a	n/a	n/a	74.171900323313
217.292138518	0.75	8	early	em_task_post	n/a	n/a	n/a	n/a	n/a
224.0	1.5	9	late	stimulus	n/a	135.0	n/a	n/a	n/a
235.5	0.5	9	late	dm_task_pre	n/a	n/a	n/a	n/a	n/a
236.0	1.00436505299999	9	late	dm_task	1.00436505299999	n/a	-4.0	1.0	n/a
237.004365053	0.75	9	late	dm_task_post	n/a	n/a	n/a	n/a	n/a
241.5	0.5	9	late	em_task_pre	n/a	n/a	n/a	n/a	n/a
242.0	3.533518321999999	9	late	em_task	n/a	n/a	n/a	n/a	153.517134774676
245.533518322	0.75	9	late	em_task_post	n/a	n/a	n/a	n/a	n/a
252.0	1.5	10	early	stimulus	n/a	150.0	n/a	n/a	n/a
257.5	0.5	10	early	dm_task_pre	n/a	n/a	n/a	n/a	n/a
258.0	1.18062947299995	10	early	dm_task	1.18062947299995	n/a	-21.0	1.0	n/a
259.18062947299995	0.75	10	early	dm_task_post	n/a	n/a	n/a	n/a	n/a
269.5	0.5	10	early	em_task_pre	n/a	n/a	n/a	n/a	n/a
270.0	3.207935408000001	10	early	em_task	n/a	n/a	n/a	n/a	149.217117005286
273.207935408	0.75	10	early	em_task_post	n/a	n/a	n/a	n/a	n/a
280.0	1.5	11	early	stimulus	n/a	37.5	n/a	n/a	n/a
285.5	0.5	11	early	dm_task_pre	n/a	n/a	n/a	n/a	n/a
286.0	0.854936187000021	11	early	dm_task	0.854936187000021	n/a	4.0	1.0	n/a
286.854936187	0.75	11	early	dm_task_post	n/a	n/a	n/a	n/a	n/a
297.5	0.5	11	early	em_task_pre	n/a	n/a	n/a	n/a	n/a
298.0	1.8331190970000009	11	early	em_task	n/a	n/a	n/a	n/a	57.4946713665014
299.833119097	0.75	11	early	em_task_post	n/a	n/a	n/a	n/a	n/a
308.0	1.5	12	late	stimulus	n/a	165.0	n/a	n/a	n/a
319.5	0.5	12	late	dm_task_pre	n/a	n/a	n/a	n/a	n/a
320.0	1.12794529999996	12	late	dm_task	1.12794529999996	n/a	-4.0	-1.0	n/a
321.12794529999996	0.75	12	late	dm_task_post	n/a	n/a	n/a	n/a	n/a
325.5	0.5	12	late	em_task_pre	n/a	n/a	n/a	n/a	n/a
326.0	1.6244473730000983	12	late	em_task	n/a	n/a	n/a	n/a	137.835639978249
327.6244473730001	0.75	12	late	em_task_post	n/a	n/a	n/a	n/a	n/a
