onset	duration	trial	trial_type	event_type	response_time	value_stimulus	value_reference	response_decision	response_estimation
0.0	1.5	1	early	stimulus	n/a	135.0	n/a	n/a	n/a
5.5	0.5	1	early	dm_task_pre	n/a	n/a	n/a	n/a	n/a
6.0	0.996185506228358	1	early	dm_task	0.996185506228358	n/a	4.0	-1.0	n/a
6.9961855062283576	0.75	1	early	dm_task_post	n/a	n/a	n/a	n/a	n/a
17.5	0.5	1	early	em_task_pre	n/a	n/a	n/a	n/a	n/a
18.0	2.5087381042540002	1	early	em_task	n/a	n/a	n/a	n/a	138.416619364501
20.508738104254	0.75	1	early	em_task_post	n/a	n/a	n/a	n/a	n/a
28.0	1.5	2	late	stimulus	n/a	15.0	n/a	n/a	n/a
39.5	0.5	2	late	dm_task_pre	n/a	n/a	n/a	n/a	n/a
40.0	1.03365122200921	2	late	dm_task	1.03365122200921	n/a	21.0	1.0	n/a
41.03365122200921	0.75	2	late	dm_task_post	n/a	n/a	n/a	n/a	n/a
45.5	0.5	2	late	em_task_pre	n/a	n/a	n/a	n/a	n/a
46.0	2.5799192083068014	2	late	em_task	n/a	n/a	n/a	n/a	16.2424151747033
48.579919208306805	0.75	2	late	em_task_post	n/a	n/a	n/a	n/a	n/a
56.0	1.5	3	late	stimulus	n/a	75.0	n/a	n/a	n/a
67.5	0.5	3	late	dm_task_pre	n/a	n/a	n/a	n/a	n/a
68.0	0.655955822207034	3	late	dm_task	0.655955822207034	n/a	0.0	-1.0	n/a
68.65595582220703	0.75	3	late	dm_task_post	n/a	n/a	n/a	n/a	n/a
73.5	0.5	3	late	em_task_pre	n/a	n/a	n/a	n/a	n/a
74.0	2.9038016572595	3	late	em_task	n/a	n/a	n/a	n/a	64.4836821309505
76.90380165725949	0.75	3	late	em_task_post	n/a	n/a	n/a	n/a	n/a
84.0	1.5	4	late	stimulus	n/a	52.5	n/a	n/a	n/a
95.5	0.5	4	late	dm_task_pre	n/a	n/a	n/a	n/a	n/a
96.0	0.628266999032348	4	late	dm_task	0.628266999032348	n/a	4.0	-1.0	n/a
96.62826699903235	0.75	4	late	dm_task_post	n/a	n/a	n/a	n/a	n/a
101.5	0.5	4	late	em_task_pre	n/a	n/a	n/a	n/a	n/a
102.0	2.2444531661457994	4	late	em_task	n/a	n/a	n/a	n/a	41.2978246163883
104.2444531661458	0.75	4	late	em_task_post	n/a	n/a	n/a	n/a	n/a
112.0	1.5	5	late	stimulus	n/a	150.0	n/a	n/a	n/a
123.5	0.5	5	late	dm_task_pre	n/a	n/a	n/a	n/a	n/a
124.0	0.951219826005399	5	late	dm_task	0.951219826005399	n/a	-4.0	1.0	n/a
124.9512198260054	0.75	5	late	dm_task_post	n/a	n/a	n/a	n/a	n/a
129.5	0.5	5	late	em_task_pre	n/a	n/a	n/a	n/a	n/a
130.0	2.1336262598634015	5	late	em_task	n/a	n/a	n/a	n/a	154.889162400674
132.1336262598634	0.75	5	late	em_task_post	n/a	n/a	n/a	n/a	n/a
140.0	1.5	6	late	stimulus	n/a	7.5	n/a	n/a	n/a
151.5	0.5	6	late	dm_task_pre	n/a	n/a	n/a	n/a	n/a
152.0	1.29181760223582	6	late	dm_task	1.29181760223582	n/a	4.0	1.0	n/a
153.29181760223582	0.75	6	late	dm_task_post	n/a	n/a	n/a	n/a	n/a
157.5	0.5	6	late	em_task_pre	n/a	n/a	n/a	n/a	n/a
158.0	2.957069304306099	6	late	em_task	n/a	n/a	n/a	n/a	8.94825078893076
160.9570693043061	0.75	6	late	em_task_post	n/a	n/a	n/a	n/a	n/a
168.0	1.5	7	late	stimulus	n/a	0.0	n/a	n/a	n/a
179.5	0.5	7	late	dm_task_pre	n/a	n/a	n/a	n/a	n/a
180.0	1.33290347317234	7	late	dm_task	1.33290347317234	n/a	0.0	1.0	n/a
181.33290347317234	0.75	7	late	dm_task_post	n/a	n/a	n/a	n/a	n/a
185.5	0.5	7	late	em_task_pre	n/a	n/a	n/a	n/a	n/a
186.0	2.4289424489251985	7	late	em_task	n/a	n/a	n/a	n/a	1.26792430292903
188.4289424489252	0.75	7	late	em_task_post	n/a	n/a	n/a	n/a	n/a
196.0	1.5	8	late	stimulus	n/a	90.0	n/a	n/a	n/a
207.5	0.5	8	late	dm_task_pre	n/a	n/a	n/a	n/a	n/a
208.0	0.554644503165036	8	late	dm_task	0.554644503165036	n/a	21.0	-1.0	n/a
208.55464450316504	0.75	8	late	dm_task_post	n/a	n/a	n/a	n/a	n/a
213.5	0.5	8	late	em_task_pre	n/a	n/a	n/a	n/a	n/a
214.0	2.4194679511711	8	late	em_task	n/a	n/a	n/a	n/a	85.5100786480979
216.4194679511711	0.75	8	late	em_task_post	n/a	n/a	n/a	n/a	n/a
224.0	1.5	9	early	stimulus	n/a	22.5	n/a	n/a	n/a
229.5	0.5	9	early	dm_task_pre	n/a	n/a	n/a	n/a	n/a
230.0	1.5	9	early	dm_task	1.51492992509156	n/a	21.0	-1.0	n/a
231.5	0.75	9	early	dm_task_post	n/a	n/a	n/a	n/a	n/a
241.5	0.5	9	early	em_task_pre	n/a	n/a	n/a	n/a	n/a
242.0	2.8606799212283995	9	early	em_task	n/a	n/a	n/a	n/a	7.71282652303921
244.8606799212284	0.75	9	early	em_task_post	n/a	n/a	n/a	n/a	n/a
252.0	1.5	10	late	stimulus	n/a	157.5	n/a	n/a	n/a
263.5	0.5	10	late	dm_task_pre	n/a	n/a	n/a	n/a	n/a
264.0	0.718072643037885	10	late	dm_task	0.718072643037885	n/a	4.0	-1.0	n/a
264.7180726430379	0.75	10	late	dm_task_post	n/a	n/a	n/a	n/a	n/a
269.5	0.5	10	late	em_task_pre	n/a	n/a	n/a	n/a	n/a
270.0	3.5989395203068995	10	late	em_task	n/a	n/a	n/a	n/a	163.778809513414
273.5989395203069	0.75	10	late	em_task_post	n/a	n/a	n/a	n/a	n/a
280.0	1.5	11	early	stimulus	n/a	112.5	n/a	n/a	n/a
285.5	0.5	11	early	dm_task_pre	n/a	n/a	n/a	n/a	n/a
286.0	0.642905585002154	11	early	dm_task	0.642905585002154	n/a	-21.0	1.0	n/a
286.64290558500215	0.75	11	early	dm_task_post	n/a	n/a	n/a	n/a	n/a
297.5	0.5	11	early	em_task_pre	n/a	n/a	n/a	n/a	n/a
298.0	1.9574605841190014	11	early	em_task	n/a	n/a	n/a	n/a	107.284682445823
299.957460584119	0.75	11	early	em_task_post	n/a	n/a	n/a	n/a	n/a
308.0	1.5	12	late	stimulus	n/a	142.5	n/a	n/a	n/a
319.5	0.5	12	late	dm_task_pre	n/a	n/a	n/a	n/a	n/a
320.0	0.580832188017666	12	late	dm_task	0.580832188017666	n/a	4.0	1.0	n/a
320.58083218801767	0.75	12	late	dm_task_post	n/a	n/a	n/a	n/a	n/a
325.5	0.5	12	late	em_task_pre	n/a	n/a	n/a	n/a	n/a
326.0	2.1458192700520016	12	late	em_task	n/a	n/a	n/a	n/a	155.661669331044
328.145819270052	0.75	12	late	em_task_post	n/a	n/a	n/a	n/a	n/a
