onset	duration	trial	trial_type	event_type	response_time	value_stimulus	value_reference	response_decision	response_estimation
0.0	1.5	1	early	stimulus	n/a	45.0	n/a	n/a	n/a
5.5	0.5	1	early	dm_task_pre	n/a	n/a	n/a	n/a	n/a
6.0	0.88326580499961	1	early	dm_task	0.88326580499961	n/a	0.0	-1.0	n/a
6.88326580499961	0.75	1	early	dm_task_post	n/a	n/a	n/a	n/a	n/a
17.5	0.5	1	early	em_task_pre	n/a	n/a	n/a	n/a	n/a
18.0	1.361287502000799	1	early	em_task	n/a	n/a	n/a	n/a	32.6066915031339
19.3612875020008	0.75	1	early	em_task_post	n/a	n/a	n/a	n/a	n/a
28.0	1.5	2	late	stimulus	n/a	15.0	n/a	n/a	n/a
39.5	0.5	2	late	dm_task_pre	n/a	n/a	n/a	n/a	n/a
40.0	0.656230234999384	2	late	dm_task	0.656230234999384	n/a	4.0	-1.0	n/a
40.656230234999384	0.75	2	late	dm_task_post	n/a	n/a	n/a	n/a	n/a
45.5	0.5	2	late	em_task_pre	n/a	n/a	n/a	n/a	n/a
46.0	3.8685395970005985	2	late	em_task	n/a	n/a	n/a	n/a	15.0720940723169
49.8685395970006	0.75	2	late	em_task_post	n/a	n/a	n/a	n/a	n/a
56.0	1.5	3	late	stimulus	n/a	67.5	n/a	n/a	n/a
67.5	0.5	3	late	dm_task_pre	n/a	n/a	n/a	n/a	n/a
68.0	0.747444062000795	3	late	dm_task	0.747444062000795	n/a	-4.0	1.0	n/a
68.7474440620008	0.75	3	late	dm_task_post	n/a	n/a	n/a	n/a	n/a
73.5	0.5	3	late	em_task_pre	n/a	n/a	n/a	n/a	n/a
74.0	1.3107237759996018	3	late	em_task	n/a	n/a	n/a	n/a	70.8696563099274
75.3107237759996	0.75	3	late	em_task_post	n/a	n/a	n/a	n/a	n/a
84.0	1.5	4	early	stimulus	n/a	90.0	n/a	n/a	n/a
89.5	0.5	4	early	dm_task_pre	n/a	n/a	n/a	n/a	n/a
90.0	0.741855898999347	4	early	dm_task	0.741855898999347	n/a	21.0	-1.0	n/a
90.74185589899935	0.75	4	early	dm_task_post	n/a	n/a	n/a	n/a	n/a
101.5	0.5	4	early	em_task_pre	n/a	n/a	n/a	n/a	n/a
102.0	3.0677238030002982	4	early	em_task	n/a	n/a	n/a	n/a	92.7935370743132
105.06772380300029	0.75	4	early	em_task_post	n/a	n/a	n/a	n/a	n/a
112.0	1.5	5	late	stimulus	n/a	75.0	n/a	n/a	n/a
123.5	0.5	5	late	dm_task_pre	n/a	n/a	n/a	n/a	n/a
124.0	0.712767216000429	5	late	dm_task	0.712767216000429	n/a	0.0	1.0	n/a
124.71276721600043	0.75	5	late	dm_task_post	n/a	n/a	n/a	n/a	n/a
129.5	0.5	5	late	em_task_pre	n/a	n/a	n/a	n/a	n/a
130.0	1.7097025180009986	5	late	em_task	n/a	n/a	n/a	n/a	83.7380958827215
131.709702518001	0.75	5	late	em_task_post	n/a	n/a	n/a	n/a	n/a
140.0	1.5	6	late	stimulus	n/a	105.0	n/a	n/a	n/a
151.5	0.5	6	late	dm_task_pre	n/a	n/a	n/a	n/a	n/a
152.0	0.470719446000658	6	late	dm_task	0.470719446000658	n/a	21.0	-1.0	n/a
152.47071944600066	0.75	6	late	dm_task_post	n/a	n/a	n/a	n/a	n/a
157.5	0.5	6	late	em_task_pre	n/a	n/a	n/a	n/a	n/a
158.0	2.7503415289993	6	late	em_task	n/a	n/a	n/a	n/a	112.370548321175
160.7503415289993	0.75	6	late	em_task_post	n/a	n/a	n/a	n/a	n/a
168.0	1.5	7	early	stimulus	n/a	82.5	n/a	n/a	n/a
173.5	0.5	7	early	dm_task_pre	n/a	n/a	n/a	n/a	n/a
174.0	0.564102468000783	7	early	dm_task	0.564102468000783	n/a	-21.0	1.0	n/a
174.56410246800078	0.75	7	early	dm_task_post	n/a	n/a	n/a	n/a	n/a
185.5	0.5	7	early	em_task_pre	n/a	n/a	n/a	n/a	n/a
186.0	1.6252874979999987	7	early	em_task	n/a	n/a	n/a	n/a	77.0899019703968
187.625287498	0.75	7	early	em_task_post	n/a	n/a	n/a	n/a	n/a
196.0	1.5	8	early	stimulus	n/a	97.5	n/a	n/a	n/a
201.5	0.5	8	early	dm_task_pre	n/a	n/a	n/a	n/a	n/a
202.0	0.855342283999562	8	early	dm_task	0.855342283999562	n/a	0.0	1.0	n/a
202.85534228399956	0.75	8	early	dm_task_post	n/a	n/a	n/a	n/a	n/a
213.5	0.5	8	early	em_task_pre	n/a	n/a	n/a	n/a	n/a
214.0	1.966538721000699	8	early	em_task	n/a	n/a	n/a	n/a	102.518466383351
215.9665387210007	0.75	8	early	em_task_post	n/a	n/a	n/a	n/a	n/a
224.0	1.5	9	early	stimulus	n/a	22.5	n/a	n/a	n/a
229.5	0.5	9	early	dm_task_pre	n/a	n/a	n/a	n/a	n/a
230.0	0.779871046999688	9	early	dm_task	0.779871046999688	n/a	4.0	1.0	n/a
230.7798710469997	0.75	9	early	dm_task_post	n/a	n/a	n/a	n/a	n/a
241.5	0.5	9	early	em_task_pre	n/a	n/a	n/a	n/a	n/a
242.0	2.0702175189999004	9	early	em_task	n/a	n/a	n/a	n/a	17.9046875802184
244.0702175189999	0.75	9	early	em_task_post	n/a	n/a	n/a	n/a	n/a
252.0	1.5	10	late	stimulus	n/a	172.5	n/a	n/a	n/a
263.5	0.5	10	late	dm_task_pre	n/a	n/a	n/a	n/a	n/a
264.0	0.802522944999509	10	late	dm_task	0.802522944999509	n/a	0.0	-1.0	n/a
264.8025229449995	0.75	10	late	dm_task_post	n/a	n/a	n/a	n/a	n/a
269.5	0.5	10	late	em_task_pre	n/a	n/a	n/a	n/a	n/a
270.0	4.5	10	late	em_task	n/a	n/a	n/a	n/a	n/a
274.5	0.75	10	late	em_task_post	n/a	n/a	n/a	n/a	n/a
280.0	1.5	11	early	stimulus	n/a	112.5	n/a	n/a	n/a
285.5	0.5	11	early	dm_task_pre	n/a	n/a	n/a	n/a	n/a
286.0	0.57927387699965	11	early	dm_task	0.57927387699965	n/a	21.0	-1.0	n/a
286.57927387699965	0.75	11	early	dm_task_post	n/a	n/a	n/a	n/a	n/a
297.5	0.5	11	early	em_task_pre	n/a	n/a	n/a	n/a	n/a
298.0	2.2070131769996983	11	early	em_task	n/a	n/a	n/a	n/a	111.721548593906
300.2070131769997	0.75	11	early	em_task_post	n/a	n/a	n/a	n/a	n/a
308.0	1.5	12	late	stimulus	n/a	165.0	n/a	n/a	n/a
319.5	0.5	12	late	dm_task_pre	n/a	n/a	n/a	n/a	n/a
320.0	0.90189980499963	12	late	dm_task	0.90189980499963	n/a	0.0	-1.0	n/a
320.90189980499963	0.75	12	late	dm_task_post	n/a	n/a	n/a	n/a	n/a
325.5	0.5	12	late	em_task_pre	n/a	n/a	n/a	n/a	n/a
326.0	1.7982329770002003	12	late	em_task	n/a	n/a	n/a	n/a	145.868017162611
327.7982329770002	0.75	12	late	em_task_post	n/a	n/a	n/a	n/a	n/a
