onset	duration	trial	trial_type	event_type	response_time	value_stimulus	value_reference	response_decision	response_estimation
0.0	1.5	1	early	stimulus	n/a	0.0	n/a	n/a	n/a
5.5	0.5	1	early	dm_task_pre	n/a	n/a	n/a	n/a	n/a
6.0	0.784598867001478	1	early	dm_task	0.784598867001478	n/a	21.0	-1.0	n/a
6.784598867001478	0.75	1	early	dm_task_post	n/a	n/a	n/a	n/a	n/a
17.5	0.5	1	early	em_task_pre	n/a	n/a	n/a	n/a	n/a
18.0	3.3127293350007996	1	early	em_task	n/a	n/a	n/a	n/a	2.49286554140902
21.3127293350008	0.75	1	early	em_task_post	n/a	n/a	n/a	n/a	n/a
28.0	1.5	2	early	stimulus	n/a	7.5	n/a	n/a	n/a
33.5	0.5	2	early	dm_task_pre	n/a	n/a	n/a	n/a	n/a
34.0	0.609222179999051	2	early	dm_task	0.609222179999051	n/a	-21.0	1.0	n/a
34.60922217999905	0.75	2	early	dm_task_post	n/a	n/a	n/a	n/a	n/a
45.5	0.5	2	early	em_task_pre	n/a	n/a	n/a	n/a	n/a
46.0	3.720934411001501	2	early	em_task	n/a	n/a	n/a	n/a	13.1828011460802
49.7209344110015	0.75	2	early	em_task_post	n/a	n/a	n/a	n/a	n/a
56.0	1.5	3	early	stimulus	n/a	127.5	n/a	n/a	n/a
61.5	0.5	3	early	dm_task_pre	n/a	n/a	n/a	n/a	n/a
62.0	0.682361268998648	3	early	dm_task	0.682361268998648	n/a	-21.0	1.0	n/a
62.68236126899865	0.75	3	early	dm_task_post	n/a	n/a	n/a	n/a	n/a
73.5	0.5	3	early	em_task_pre	n/a	n/a	n/a	n/a	n/a
74.0	3.1603256650014018	3	early	em_task	n/a	n/a	n/a	n/a	112.359954298608
77.16032566500141	0.75	3	early	em_task_post	n/a	n/a	n/a	n/a	n/a
84.0	1.5	4	early	stimulus	n/a	172.5	n/a	n/a	n/a
89.5	0.5	4	early	dm_task_pre	n/a	n/a	n/a	n/a	n/a
90.0	0.888080249002087	4	early	dm_task	0.888080249002087	n/a	-21.0	1.0	n/a
90.88808024900209	0.75	4	early	dm_task_post	n/a	n/a	n/a	n/a	n/a
101.5	0.5	4	early	em_task_pre	n/a	n/a	n/a	n/a	n/a
102.0	3.2160769420007007	4	early	em_task	n/a	n/a	n/a	n/a	163.146377321256
105.2160769420007	0.75	4	early	em_task_post	n/a	n/a	n/a	n/a	n/a
112.0	1.5	5	early	stimulus	n/a	67.5	n/a	n/a	n/a
117.5	0.5	5	early	dm_task_pre	n/a	n/a	n/a	n/a	n/a
118.0	0.595457673000055	5	early	dm_task	0.595457673000055	n/a	21.0	-1.0	n/a
118.59545767300006	0.75	5	early	dm_task_post	n/a	n/a	n/a	n/a	n/a
129.5	0.5	5	early	em_task_pre	n/a	n/a	n/a	n/a	n/a
130.0	4.0069403810012005	5	early	em_task	n/a	n/a	n/a	n/a	81.3962907663098
134.0069403810012	0.75	5	early	em_task_post	n/a	n/a	n/a	n/a	n/a
140.0	1.5	6	early	stimulus	n/a	22.5	n/a	n/a	n/a
145.5	0.5	6	early	dm_task_pre	n/a	n/a	n/a	n/a	n/a
146.0	0.868077343999175	6	early	dm_task	0.868077343999175	n/a	4.0	-1.0	n/a
146.86807734399918	0.75	6	early	dm_task_post	n/a	n/a	n/a	n/a	n/a
157.5	0.5	6	early	em_task_pre	n/a	n/a	n/a	n/a	n/a
158.0	3.2467756160003987	6	early	em_task	n/a	n/a	n/a	n/a	13.3830415309388
161.2467756160004	0.75	6	early	em_task_post	n/a	n/a	n/a	n/a	n/a
168.0	1.5	7	early	stimulus	n/a	60.0	n/a	n/a	n/a
173.5	0.5	7	early	dm_task_pre	n/a	n/a	n/a	n/a	n/a
174.0	0.575288940999599	7	early	dm_task	0.575288940999599	n/a	21.0	-1.0	n/a
174.5752889409996	0.75	7	early	dm_task_post	n/a	n/a	n/a	n/a	n/a
185.5	0.5	7	early	em_task_pre	n/a	n/a	n/a	n/a	n/a
186.0	3.2863389890008	7	early	em_task	n/a	n/a	n/a	n/a	76.9682398372966
189.2863389890008	0.75	7	early	em_task_post	n/a	n/a	n/a	n/a	n/a
196.0	1.5	8	early	stimulus	n/a	157.5	n/a	n/a	n/a
201.5	0.5	8	early	dm_task_pre	n/a	n/a	n/a	n/a	n/a
202.0	1.18138713799999	8	early	dm_task	1.18138713799999	n/a	21.0	-1.0	n/a
203.181387138	0.75	8	early	dm_task_post	n/a	n/a	n/a	n/a	n/a
213.5	0.5	8	early	em_task_pre	n/a	n/a	n/a	n/a	n/a
214.0	2.8093887680005984	8	early	em_task	n/a	n/a	n/a	n/a	159.067482249517
216.8093887680006	0.75	8	early	em_task_post	n/a	n/a	n/a	n/a	n/a
224.0	1.5	9	late	stimulus	n/a	165.0	n/a	n/a	n/a
235.5	0.5	9	late	dm_task_pre	n/a	n/a	n/a	n/a	n/a
236.0	0.634612829999242	9	late	dm_task	0.634612829999242	n/a	-21.0	1.0	n/a
236.63461282999924	0.75	9	late	dm_task_post	n/a	n/a	n/a	n/a	n/a
241.5	0.5	9	late	em_task_pre	n/a	n/a	n/a	n/a	n/a
242.0	3.6981869720003004	9	late	em_task	n/a	n/a	n/a	n/a	165.547235655623
245.69818697200031	0.75	9	late	em_task_post	n/a	n/a	n/a	n/a	n/a
252.0	1.5	10	early	stimulus	n/a	52.5	n/a	n/a	n/a
257.5	0.5	10	early	dm_task_pre	n/a	n/a	n/a	n/a	n/a
258.0	1.09323851299996	10	early	dm_task	1.09323851299996	n/a	-21.0	1.0	n/a
259.09323851299996	0.75	10	early	dm_task_post	n/a	n/a	n/a	n/a	n/a
269.5	0.5	10	early	em_task_pre	n/a	n/a	n/a	n/a	n/a
270.0	4.5	10	early	em_task	n/a	n/a	n/a	n/a	n/a
274.5	0.75	10	early	em_task_post	n/a	n/a	n/a	n/a	n/a
280.0	1.5	11	late	stimulus	n/a	112.5	n/a	n/a	n/a
291.5	0.5	11	late	dm_task_pre	n/a	n/a	n/a	n/a	n/a
292.0	1.21379687900117	11	late	dm_task	1.21379687900117	n/a	-4.0	-1.0	n/a
293.21379687900117	0.75	11	late	dm_task_post	n/a	n/a	n/a	n/a	n/a
297.5	0.5	11	late	em_task_pre	n/a	n/a	n/a	n/a	n/a
298.0	3.878949390000301	11	late	em_task	n/a	n/a	n/a	n/a	105.161371278069
301.8789493900003	0.75	11	late	em_task_post	n/a	n/a	n/a	n/a	n/a
308.0	1.5	12	early	stimulus	n/a	142.5	n/a	n/a	n/a
313.5	0.5	12	early	dm_task_pre	n/a	n/a	n/a	n/a	n/a
314.0	0.8570169980012	12	early	dm_task	0.8570169980012	n/a	4.0	-1.0	n/a
314.8570169980012	0.75	12	early	dm_task_post	n/a	n/a	n/a	n/a	n/a
325.5	0.5	12	early	em_task_pre	n/a	n/a	n/a	n/a	n/a
326.0	2.835435854001801	12	early	em_task	n/a	n/a	n/a	n/a	136.92327877101
328.8354358540018	0.75	12	early	em_task_post	n/a	n/a	n/a	n/a	n/a
