onset	duration	trial	trial_type	event_type	response_time	value_stimulus	value_reference	response_decision	response_estimation
0.0	1.5	1	early	stimulus	n/a	37.5	n/a	n/a	n/a
5.5	0.5	1	early	dm_task_pre	n/a	n/a	n/a	n/a	n/a
6.0	0.83462116800365	1	early	dm_task	0.83462116800365	n/a	21.0	-1.0	n/a
6.83462116800365	0.75	1	early	dm_task_post	n/a	n/a	n/a	n/a	n/a
17.5	0.5	1	early	em_task_pre	n/a	n/a	n/a	n/a	n/a
18.0	2.997236683993801	1	early	em_task	n/a	n/a	n/a	n/a	25.0733581528127
20.9972366839938	0.75	1	early	em_task_post	n/a	n/a	n/a	n/a	n/a
28.0	1.5	2	late	stimulus	n/a	172.5	n/a	n/a	n/a
39.5	0.5	2	late	dm_task_pre	n/a	n/a	n/a	n/a	n/a
40.0	0.872974414989585	2	late	dm_task	0.872974414989585	n/a	-4.0	-1.0	n/a
40.872974414989585	0.75	2	late	dm_task_post	n/a	n/a	n/a	n/a	n/a
45.5	0.5	2	late	em_task_pre	n/a	n/a	n/a	n/a	n/a
46.0	2.386916187009799	2	late	em_task	n/a	n/a	n/a	n/a	161.990876953217
48.3869161870098	0.75	2	late	em_task_post	n/a	n/a	n/a	n/a	n/a
56.0	1.5	3	early	stimulus	n/a	165.0	n/a	n/a	n/a
61.5	0.5	3	early	dm_task_pre	n/a	n/a	n/a	n/a	n/a
62.0	0.548545872996328	3	early	dm_task	0.548545872996328	n/a	4.0	-1.0	n/a
62.54854587299633	0.75	3	early	dm_task_post	n/a	n/a	n/a	n/a	n/a
73.5	0.5	3	early	em_task_pre	n/a	n/a	n/a	n/a	n/a
74.0	2.2766451610077993	3	early	em_task	n/a	n/a	n/a	n/a	161.743993614507
76.27664516100779	0.75	3	early	em_task_post	n/a	n/a	n/a	n/a	n/a
84.0	1.5	4	late	stimulus	n/a	105.0	n/a	n/a	n/a
95.5	0.5	4	late	dm_task_pre	n/a	n/a	n/a	n/a	n/a
96.0	0.669213057000889	4	late	dm_task	0.669213057000889	n/a	-4.0	1.0	n/a
96.66921305700089	0.75	4	late	dm_task_post	n/a	n/a	n/a	n/a	n/a
101.5	0.5	4	late	em_task_pre	n/a	n/a	n/a	n/a	n/a
102.0	2.9001206109823983	4	late	em_task	n/a	n/a	n/a	n/a	115.387279158142
104.9001206109824	0.75	4	late	em_task_post	n/a	n/a	n/a	n/a	n/a
112.0	1.5	5	late	stimulus	n/a	82.5	n/a	n/a	n/a
123.5	0.5	5	late	dm_task_pre	n/a	n/a	n/a	n/a	n/a
124.0	0.991538725997088	5	late	dm_task	0.991538725997088	n/a	-4.0	1.0	n/a
124.99153872599709	0.75	5	late	dm_task_post	n/a	n/a	n/a	n/a	n/a
129.5	0.5	5	late	em_task_pre	n/a	n/a	n/a	n/a	n/a
130.0	3.373599876998899	5	late	em_task	n/a	n/a	n/a	n/a	71.3517783407432
133.3735998769989	0.75	5	late	em_task_post	n/a	n/a	n/a	n/a	n/a
140.0	1.5	6	late	stimulus	n/a	75.0	n/a	n/a	n/a
151.5	0.5	6	late	dm_task_pre	n/a	n/a	n/a	n/a	n/a
152.0	0.898336596990703	6	late	dm_task	0.898336596990703	n/a	0.0	-1.0	n/a
152.8983365969907	0.75	6	late	dm_task_post	n/a	n/a	n/a	n/a	n/a
157.5	0.5	6	late	em_task_pre	n/a	n/a	n/a	n/a	n/a
158.0	2.2953041949950013	6	late	em_task	n/a	n/a	n/a	n/a	72.7104996599575
160.295304194995	0.75	6	late	em_task_post	n/a	n/a	n/a	n/a	n/a
168.0	1.5	7	late	stimulus	n/a	30.0	n/a	n/a	n/a
179.5	0.5	7	late	dm_task_pre	n/a	n/a	n/a	n/a	n/a
180.0	0.539001762983389	7	late	dm_task	0.539001762983389	n/a	4.0	1.0	n/a
180.5390017629834	0.75	7	late	dm_task_post	n/a	n/a	n/a	n/a	n/a
185.5	0.5	7	late	em_task_pre	n/a	n/a	n/a	n/a	n/a
186.0	1.9683420849905993	7	late	em_task	n/a	n/a	n/a	n/a	34.9515932007909
187.9683420849906	0.75	7	late	em_task_post	n/a	n/a	n/a	n/a	n/a
196.0	1.5	8	early	stimulus	n/a	15.0	n/a	n/a	n/a
201.5	0.5	8	early	dm_task_pre	n/a	n/a	n/a	n/a	n/a
202.0	0.598067559010815	8	early	dm_task	0.598067559010815	n/a	-4.0	1.0	n/a
202.59806755901081	0.75	8	early	dm_task_post	n/a	n/a	n/a	n/a	n/a
213.5	0.5	8	early	em_task_pre	n/a	n/a	n/a	n/a	n/a
214.0	2.0928764099954016	8	early	em_task	n/a	n/a	n/a	n/a	13.000025323313
216.0928764099954	0.75	8	early	em_task_post	n/a	n/a	n/a	n/a	n/a
224.0	1.5	9	late	stimulus	n/a	90.0	n/a	n/a	n/a
235.5	0.5	9	late	dm_task_pre	n/a	n/a	n/a	n/a	n/a
236.0	0.503272926987847	9	late	dm_task	0.503272926987847	n/a	21.0	-1.0	n/a
236.50327292698785	0.75	9	late	dm_task_post	n/a	n/a	n/a	n/a	n/a
241.5	0.5	9	late	em_task_pre	n/a	n/a	n/a	n/a	n/a
242.0	2.2660745769972017	9	late	em_task	n/a	n/a	n/a	n/a	78.2827597746756
244.2660745769972	0.75	9	late	em_task_post	n/a	n/a	n/a	n/a	n/a
252.0	1.5	10	late	stimulus	n/a	157.5	n/a	n/a	n/a
263.5	0.5	10	late	dm_task_pre	n/a	n/a	n/a	n/a	n/a
264.0	0.657806520001031	10	late	dm_task	0.657806520001031	n/a	-4.0	-1.0	n/a
264.65780652000103	0.75	10	late	dm_task_post	n/a	n/a	n/a	n/a	n/a
269.5	0.5	10	late	em_task_pre	n/a	n/a	n/a	n/a	n/a
270.0	3.204973785002899	10	late	em_task	n/a	n/a	n/a	n/a	164.685867005286
273.2049737850029	0.75	10	late	em_task_post	n/a	n/a	n/a	n/a	n/a
280.0	1.5	11	late	stimulus	n/a	120.0	n/a	n/a	n/a
291.5	0.5	11	late	dm_task_pre	n/a	n/a	n/a	n/a	n/a
292.0	0.563709346984979	11	late	dm_task	0.563709346984979	n/a	21.0	-1.0	n/a
292.563709346985	0.75	11	late	dm_task_post	n/a	n/a	n/a	n/a	n/a
297.5	0.5	11	late	em_task_pre	n/a	n/a	n/a	n/a	n/a
298.0	2.2118628509924996	11	late	em_task	n/a	n/a	n/a	n/a	134.838421366501
300.2118628509925	0.75	11	late	em_task_post	n/a	n/a	n/a	n/a	n/a
308.0	1.5	12	early	stimulus	n/a	142.5	n/a	n/a	n/a
313.5	0.5	12	early	dm_task_pre	n/a	n/a	n/a	n/a	n/a
314.0	0.523421536985552	12	early	dm_task	0.523421536985552	n/a	21.0	-1.0	n/a
314.52342153698555	0.75	12	early	dm_task_post	n/a	n/a	n/a	n/a	n/a
325.5	0.5	12	early	em_task_pre	n/a	n/a	n/a	n/a	n/a
326.0	1.9515246560040005	12	early	em_task	n/a	n/a	n/a	n/a	152.601264978249
327.951524656004	0.75	12	early	em_task_post	n/a	n/a	n/a	n/a	n/a
