onset	duration	trial	trial_type	event_type	response_time	value_stimulus	value_reference	response_decision	response_estimation
0.0	1.5	1	late	stimulus	n/a	150.0	n/a	n/a	n/a
11.5	0.5	1	late	dm_task_pre	n/a	n/a	n/a	n/a	n/a
12.0	0.877107722975779	1	late	dm_task	0.877107722975779	n/a	21.0	-1.0	n/a
12.87710772297578	0.75	1	late	dm_task_post	n/a	n/a	n/a	n/a	n/a
17.5	0.5	1	late	em_task_pre	n/a	n/a	n/a	n/a	n/a
18.0	2.1464056959957993	1	late	em_task	n/a	n/a	n/a	n/a	141.709743518007
20.1464056959958	0.75	1	late	em_task_post	n/a	n/a	n/a	n/a	n/a
28.0	1.5	2	late	stimulus	n/a	67.5	n/a	n/a	n/a
39.5	0.5	2	late	dm_task_pre	n/a	n/a	n/a	n/a	n/a
40.0	0.937098207999952	2	late	dm_task	0.937098207999952	n/a	21.0	1.0	n/a
40.93709820799995	0.75	2	late	dm_task_post	n/a	n/a	n/a	n/a	n/a
45.5	0.5	2	late	em_task_pre	n/a	n/a	n/a	n/a	n/a
46.0	3.8559348710113994	2	late	em_task	n/a	n/a	n/a	n/a	53.3533982165483
49.8559348710114	0.75	2	late	em_task_post	n/a	n/a	n/a	n/a	n/a
56.0	1.5	3	early	stimulus	n/a	135.0	n/a	n/a	n/a
61.5	0.5	3	early	dm_task_pre	n/a	n/a	n/a	n/a	n/a
62.0	0.875940366007853	3	early	dm_task	0.875940366007853	n/a	21.0	-1.0	n/a
62.87594036600785	0.75	3	early	dm_task_post	n/a	n/a	n/a	n/a	n/a
73.5	0.5	3	early	em_task_pre	n/a	n/a	n/a	n/a	n/a
74.0	2.382987448014301	3	early	em_task	n/a	n/a	n/a	n/a	134.037510159205
76.3829874480143	0.75	3	early	em_task_post	n/a	n/a	n/a	n/a	n/a
84.0	1.5	4	late	stimulus	n/a	37.5	n/a	n/a	n/a
95.5	0.5	4	late	dm_task_pre	n/a	n/a	n/a	n/a	n/a
96.0	1.13760596700013	4	late	dm_task	1.13760596700013	n/a	4.0	1.0	n/a
97.13760596700013	0.75	4	late	dm_task_post	n/a	n/a	n/a	n/a	n/a
101.5	0.5	4	late	em_task_pre	n/a	n/a	n/a	n/a	n/a
102.0	3.407221911009401	4	late	em_task	n/a	n/a	n/a	n/a	27.5309177013967
105.4072219110094	0.75	4	late	em_task_post	n/a	n/a	n/a	n/a	n/a
112.0	1.5	5	late	stimulus	n/a	112.5	n/a	n/a	n/a
123.5	0.5	5	late	dm_task_pre	n/a	n/a	n/a	n/a	n/a
124.0	1.16542603401467	5	late	dm_task	1.16542603401467	n/a	-4.0	1.0	n/a
125.16542603401467	0.75	5	late	dm_task_post	n/a	n/a	n/a	n/a	n/a
129.5	0.5	5	late	em_task_pre	n/a	n/a	n/a	n/a	n/a
130.0	3.7992684739874996	5	late	em_task	n/a	n/a	n/a	n/a	113.100603129853
133.7992684739875	0.75	5	late	em_task_post	n/a	n/a	n/a	n/a	n/a
140.0	1.5	6	late	stimulus	n/a	90.0	n/a	n/a	n/a
151.5	0.5	6	late	dm_task_pre	n/a	n/a	n/a	n/a	n/a
152.0	1.08925221202662	6	late	dm_task	1.08925221202662	n/a	-4.0	-1.0	n/a
153.08925221202662	0.75	6	late	dm_task_post	n/a	n/a	n/a	n/a	n/a
157.5	0.5	6	late	em_task_pre	n/a	n/a	n/a	n/a	n/a
158.0	3.042439177981599	6	late	em_task	n/a	n/a	n/a	n/a	83.665013808817
161.0424391779816	0.75	6	late	em_task_post	n/a	n/a	n/a	n/a	n/a
168.0	1.5	7	late	stimulus	n/a	60.0	n/a	n/a	n/a
179.5	0.5	7	late	dm_task_pre	n/a	n/a	n/a	n/a	n/a
180.0	0.99905604601372	7	late	dm_task	0.99905604601372	n/a	21.0	1.0	n/a
180.99905604601372	0.75	7	late	dm_task_post	n/a	n/a	n/a	n/a	n/a
185.5	0.5	7	late	em_task_pre	n/a	n/a	n/a	n/a	n/a
186.0	3.852158808033	7	late	em_task	n/a	n/a	n/a	n/a	66.0736621847656
189.852158808033	0.75	7	late	em_task_post	n/a	n/a	n/a	n/a	n/a
196.0	1.5	8	early	stimulus	n/a	7.5	n/a	n/a	n/a
201.5	0.5	8	early	dm_task_pre	n/a	n/a	n/a	n/a	n/a
202.0	0.822395652998239	8	early	dm_task	0.822395652998239	n/a	4.0	1.0	n/a
202.82239565299824	0.75	8	early	dm_task_post	n/a	n/a	n/a	n/a	n/a
213.5	0.5	8	early	em_task_pre	n/a	n/a	n/a	n/a	n/a
214.0	2.9111928649945007	8	early	em_task	n/a	n/a	n/a	n/a	18.3075448661511
216.9111928649945	0.75	8	early	em_task_post	n/a	n/a	n/a	n/a	n/a
224.0	1.5	9	late	stimulus	n/a	75.0	n/a	n/a	n/a
235.5	0.5	9	late	dm_task_pre	n/a	n/a	n/a	n/a	n/a
236.0	1.3336029269849	9	late	dm_task	1.3336029269849	n/a	4.0	1.0	n/a
237.3336029269849	0.75	9	late	dm_task_post	n/a	n/a	n/a	n/a	n/a
241.5	0.5	9	late	em_task_pre	n/a	n/a	n/a	n/a	n/a
242.0	4.5	9	late	em_task	n/a	n/a	n/a	n/a	n/a
246.5	0.75	9	late	em_task_post	n/a	n/a	n/a	n/a	n/a
252.0	1.5	10	early	stimulus	n/a	0.0	n/a	n/a	n/a
257.5	0.5	10	early	dm_task_pre	n/a	n/a	n/a	n/a	n/a
258.0	1.5	10	early	dm_task	1.60738270101137	n/a	-4.0	1.0	n/a
259.5	0.75	10	early	dm_task_post	n/a	n/a	n/a	n/a	n/a
269.5	0.5	10	early	em_task_pre	n/a	n/a	n/a	n/a	n/a
270.0	3.4948471490061017	10	early	em_task	n/a	n/a	n/a	n/a	166.020773910686
273.4948471490061	0.75	10	early	em_task_post	n/a	n/a	n/a	n/a	n/a
280.0	1.5	11	late	stimulus	n/a	22.5	n/a	n/a	n/a
291.5	0.5	11	late	dm_task_pre	n/a	n/a	n/a	n/a	n/a
292.0	0.68476690602256	11	late	dm_task	0.68476690602256	n/a	-4.0	1.0	n/a
292.68476690602256	0.75	11	late	dm_task_post	n/a	n/a	n/a	n/a	n/a
297.5	0.5	11	late	em_task_pre	n/a	n/a	n/a	n/a	n/a
298.0	2.6883105150191007	11	late	em_task	n/a	n/a	n/a	n/a	24.4351109182556
300.6883105150191	0.75	11	late	em_task_post	n/a	n/a	n/a	n/a	n/a
308.0	1.5	12	late	stimulus	n/a	52.5	n/a	n/a	n/a
319.5	0.5	12	late	dm_task_pre	n/a	n/a	n/a	n/a	n/a
320.0	1.16186992498115	12	late	dm_task	1.16186992498115	n/a	4.0	-1.0	n/a
321.16186992498115	0.75	12	late	dm_task_post	n/a	n/a	n/a	n/a	n/a
325.5	0.5	12	late	em_task_pre	n/a	n/a	n/a	n/a	n/a
326.0	2.4303676580312015	12	late	em_task	n/a	n/a	n/a	n/a	34.5508028331401
328.4303676580312	0.75	12	late	em_task_post	n/a	n/a	n/a	n/a	n/a
